<?xml version="1.0" encoding="UTF-8"?>

<Bundle xmlns="http://hl7.org/fhir">
  <id value="b133f068-a211-47f2-8581-f91828ea057b"/>
  <meta>
    <profile value="http://hl7.eu/fhir/laboratory/StructureDefinition/Bundle-eu-lab"/>
  </meta>
  <identifier>
    <system value="urn:oid:1.2.40.0.34.99.4613.3.1"/>
    <value value="122082.1"/>
    <assigner>
      <display value="Amadeus Spital"/>
    </assigner>
  </identifier>
  <type value="document"/>
  <timestamp value="2021-06-01T06:35:00+02:00"/>
  <entry>
    <fullUrl value="urn:uuid:5869a2cb-4083-43dc-b3e8-0c98e440f50a"/>
    <resource>
      <Composition>
        <id value="5869a2cb-4083-43dc-b3e8-0c98e440f50a"/>
        <meta>
          <profile value="http://hl7.eu/fhir/laboratory/StructureDefinition/Composition-eu-lab"/>
        </meta>
        <language value="de-AT"/>
        <extension url="http://hl7.eu/fhir/StructureDefinition/composition-basedOn-order-or-requisition">
          <valueReference>
            <reference value="urn:uuid:e834874a-cc56-452b-9e4d-2554a5d1ffd9"/>
            <type value="ServiceRequest"/>
          </valueReference>
        </extension>
        <extension url="http://hl7.eu/fhir/laboratory/StructureDefinition/composition-diagnosticReportReference">
          <valueReference>
            <reference value="urn:uuid:50b84d39-44c6-434e-aa69-349be7a30114"/>
            <type value="DiagnosticReport"/>
          </valueReference>
        </extension>
        <extension url="http://hl7.org/fhir/StructureDefinition/composition-clinicaldocument-versionNumber">
          <valueString value="1"/>
        </extension>
        <identifier>
          <system value="urn:oid:1.2.40.0.34.99.4613.3.1"/>
          <value value="122082"/>
          <assigner>
            <display value="Amadeus Spital"/>
          </assigner>
        </identifier>
        <status value="preliminary"/>
        <type>
          <coding>
            <system value="http://loinc.org"/>
            <code value="11502-2"/>
          </coding>
        </type>
        <category>
          <coding>
            <system value="http://loinc.org"/>
            <code value="26436-6"/>
          </coding>
        </category>
        <subject>
          <reference value="urn:uuid:718cc2e3-a4ee-41a1-a5f3-04307f76319f"/>
          <type value="Patient"/>
        </subject>
        <encounter>
          <reference value="urn:uuid:8bd85ed6-22b9-427a-a4d7-85ff9176719e"/>
          <type value="Encounter"/>
        </encounter>
        <date value="2021-06-01T06:35:00+02:00"/>
        <author>
          <reference value="urn:uuid:a51148d5-e737-411f-8a86-e1c84e1adb1d"/>
          <type value="PractitionerRole"/>
        </author>
        <author>
          <reference value="urn:uuid:78652382-bead-4902-8471-428351975e6e"/>
          <type value="Device"/>
        </author>
        <title value="Allgemeiner Laborbefund"/>
        <confidentiality value="N"/>
        <attester>
          <mode value="legal"/>
          <time value="2021-06-01T13:01:00+02:00"/>
          <party>
            <reference value="urn:uuid:668552ab-f1a2-48c8-8867-38d8ead13a28"/>
            <type value="PractitionerRole"/>
          </party>
        </attester>
        <custodian>
          <reference value="urn:uuid:9aabfdd1-7053-4aa7-b28a-64428c08725b"/>
          <type value="Organization"/>
        </custodian>
        <event>
          <code>
            <coding>
              <code value="1.2.40.0.34.6.0.11.2.6"/>
            </coding>
            <text value="serviceEvent-id"/>
          </code>
          <code>
            <coding>
              <system value="http://loinc.org"/>
              <code value="46239-0"/>
            </coding>
          </code>
          <period>
            <start value="2021-06-01T06:35:00+02:00"/>
            <end value="2021-06-01T13:01:00+02:00"/>
          </period>
        </event>
        <event>
          <code>
            <coding>
              <code value="1.2.40.0.34.6.0.11.2.93"/>
            </coding>
            <text value="serviceEvent-id"/>
          </code>
          <code>
            <coding>
              <system value="https://termgit.elga.gv.at/CodeSystem/elga-laborparameterergaenzung"/>
              <code value="10"/>
            </coding>
          </code>
          <period>
            <start value="2021-06-01T06:35:00+02:00"/>
            <end value="2021-06-01T13:01:00+02:00"/>
          </period>
        </event>
        <event>
          <code>
            <coding>
              <code value="1.2.40.0.34.6.0.11.2.102"/>
            </coding>
            <text value="serviceEvent-id"/>
          </code>
          <code>
            <coding>
              <system value="https://termgit.elga.gv.at/CodeSystem/elga-laborparameterergaenzung"/>
              <code value="300"/>
            </coding>
          </code>
          <period>
            <start value="2021-06-01T06:35:00+02:00"/>
            <end value="2021-06-01T13:01:00+02:00"/>
          </period>
        </event>
        <event>
          <code>
            <coding>
              <code value="1.2.40.0.34.6.0.11.2.102"/>
            </coding>
            <text value="serviceEvent-id"/>
          </code>
          <code>
            <coding>
              <system value="https://termgit.elga.gv.at/CodeSystem/elga-laborparameterergaenzung"/>
              <code value="400"/>
            </coding>
          </code>
          <period>
            <start value="2021-06-01T06:35:00+02:00"/>
            <end value="2021-06-01T13:01:00+02:00"/>
          </period>
        </event>
        <event>
          <code>
            <coding>
              <code value="1.2.40.0.34.6.0.11.2.102"/>
            </coding>
            <text value="serviceEvent-id"/>
          </code>
          <code>
            <coding>
              <system value="https://termgit.elga.gv.at/CodeSystem/elga-laborparameterergaenzung"/>
              <code value="500"/>
            </coding>
          </code>
          <period>
            <start value="2021-06-01T06:35:00+02:00"/>
            <end value="2021-06-01T13:01:00+02:00"/>
          </period>
        </event>
        <event>
          <code>
            <coding>
              <code value="1.2.40.0.34.6.0.11.2.102"/>
            </coding>
            <text value="serviceEvent-id"/>
          </code>
          <code>
            <coding>
              <system value="https://termgit.elga.gv.at/CodeSystem/elga-laborparameterergaenzung"/>
              <code value="600"/>
            </coding>
          </code>
          <period>
            <start value="2021-06-01T06:35:00+02:00"/>
            <end value="2021-06-01T13:01:00+02:00"/>
          </period>
        </event>
        <event>
          <code>
            <coding>
              <code value="1.2.40.0.34.6.0.11.2.102"/>
            </coding>
            <text value="serviceEvent-id"/>
          </code>
          <code>
            <coding>
              <system value="https://termgit.elga.gv.at/CodeSystem/elga-laborparameterergaenzung"/>
              <code value="1800"/>
            </coding>
          </code>
          <period>
            <start value="2021-06-01T06:35:00+02:00"/>
            <end value="2021-06-01T13:01:00+02:00"/>
          </period>
        </event>
        <event>
          <code>
            <coding>
              <code value="1.2.40.0.34.6.0.11.2.103"/>
            </coding>
            <text value="serviceEvent-id"/>
          </code>
          <code>
            <coding>
              <system value="https://termgit.elga.gv.at/CodeSystem/elga-laborparameterergaenzung"/>
              <code value="20"/>
            </coding>
          </code>
          <period>
            <start value="2021-06-01T06:35:00+02:00"/>
            <end value="2021-06-01T13:01:00+02:00"/>
          </period>
        </event>
        <section>
          <title value="Hämatologie"/>
          <code>
            <coding>
              <system value="https://termgit.elga.gv.at/CodeSystem/elga-laborparameterergaenzung"/>
              <code value="300"/>
            </coding>
          </code>
          <text>
            <status value="generated"/><div xmlns="http://www.w3.org/1999/xhtml">  <!-- Befundgruppe "Blutbild" --><p style="xELGA_h3">Blutbild</p><table><thead><tr><th style="xELGA_colw:40">Analyse</th><th>Ergebnis</th><th>Einheit</th><th>Referenzbereiche</th><th style="xELGA_colw:10">Interpretation</th></tr></thead><tbody><tr style="xELGA_red" id="OBS-1-1"><td>Leukozyten</td><td>26</td><td>10^9/L</td><td id="OBSREF-1-1">4-10</td><td>+</td></tr><tr id="OBS-1-2"><td>Thrombozyten</td><td>165</td><td>10^9/L</td><td id="OBSREF-1-2">150-360</td><td/></tr><tr id="OBS-1-3"><td>Erythrozyten</td><td>5.39</td><td>10^12/L</td><td id="OBSREF-1-3">4.60-6.20</td><td/></tr><tr id="OBS-1-4"><td>Hämoglobin</td><td>16.0</td><td>g/dl</td><td id="OBSREF-1-4">14.0-18.0</td><td/></tr><tr style="xELGA_red" id="OBS-1-5"><td>Hämatokrit</td><td>49.7</td><td>%</td><td id="OBSREF-1-5">43.0-49.0</td><td>+</td></tr><tr id="OBS-1-6"><td>MCH</td><td>29.7</td><td>pg</td><td id="OBSREF-1-6">27.0-33.0</td><td/></tr><tr id="OBS-1-7"><td>MCV</td><td>92.2</td><td>fl</td><td id="OBSREF-1-7">85.0-95.0</td><td/></tr><tr id="OBS-1-8"><td>MCHC</td><td>32.2</td><td>g/dl</td><td id="OBSREF-1-8">28.0-33.0</td><td/></tr><tr id="OBS-1-12"><td>Akt.Lymphoz.rel.mi.</td><td>7</td><td>%</td><td id="OBSREF-1-12">0-10</td><td/></tr></tbody></table>  <!-- Kommentar zur Befundgruppe "Blutbild" --><p><span id="haematologyComment">Geringgradige Leukozytose, seit letzter
                                Kontrolle gestiegen. <br/> Verringerung der Thrombozytenzahl im
                                selben Zeitraum. </span></p>  <!-- Befundgruppe "Knochenmark Morphologie" --><p style="xELGA_h3">Knochenmark Morphologie</p><table><thead><tr><th style="xELGA_colw:40">Analyse</th><th>Ergebnis</th><th>Einheit</th><th>Referenzbereiche</th><th style="xELGA_colw:10">Interpretation</th></tr></thead><tbody><tr id="OBS-1-9"><td>Lymphozyten rel. /KM</td><td>0.5</td><td>%</td><td id="OBSREF-1-9">0.0-15.0</td><td/></tr><tr style="xELGA_red" id="OBS-1-10"><td>Blasten rel. /KM</td><td>92.5</td><td>%</td><td id="OBSREF-1-10">0.0-5.0</td><td>+</td></tr><tr id="OBS-1-11"><td>Eosinophile pro 100 Zellen /KM</td><td>4</td><td>%</td><td id="OBSREF-1-11">0.0-7.0</td><td/></tr></tbody></table><p>
                            Beispielhaft obige Tabelle in Festbreitenschrift:
                            <span style="xELGA_monospaced">
                                | Analyse                        | Ergebnis | Einheit | Referenzbereich | Interpretation |
                                | ------------------------------ | -------- | ------- | --------------- | -------------- |
                                | Lymphozyten rel. /KM           |     0.5  |    %    |   0.0 - 15.0    |                |
                                | Blasten rel. /KM               |    92.5  |    %    |   0.0 -  5.0    |       +        |
                                | Eosinophile pro 100 Zellen /KM |     4    |    %    |   0.0 -  7.0    |                |
                            </span></p>  <!-- Kommentar zur Befundgruppe "Knochenmark Morphologie" --><p><span id="haematologyComment2"> Massive Infiltration durch
                                leukämische Blasten, welche immunphänotypisch <br/> eindeutig als
                                lymphatisch klassifiziert wurden (pre-B-ALL, s.u.).</span></p></div>
          </text>
          <entry>
            <reference value="urn:uuid:b98d04c3-ed55-4c10-9f2d-6a10df76a0b3"/>
            <type value="Observation"/>
          </entry>
          <entry>
            <reference value="urn:uuid:f6766ae9-2798-411a-ad65-752b0a8713d4"/>
            <type value="Observation"/>
          </entry>
        </section>
        <section>
          <title value="Gerinnung/Hämostaseologie"/>
          <code>
            <coding>
              <system value="https://termgit.elga.gv.at/CodeSystem/elga-laborparameterergaenzung"/>
              <code value="400"/>
            </coding>
          </code>
          <text>
            <status value="generated"/><div xmlns="http://www.w3.org/1999/xhtml">  <!-- Befundgruppe "Hämostaseologie Globaltest" --><p style="xELGA_h3">Hämostaseologie Globaltest</p><table><thead><tr><th style="xELGA_colw:40">Analyse</th><th>Ergebnis</th><th>Einheit</th><th>Referenzbereiche</th><th style="xELGA_colw:10">Interpretation</th></tr></thead><tfoot><tr><td><tfoot id="fn1"><sup>1)</sup>INR nur gültig bei oraler
                                            Antikoagulation</tfoot></td></tr></tfoot><tbody><tr id="OBS-2-1"><td>PTZ (Prothrombinz.)</td><td>116</td><td>%</td><td id="OBSREF-2-1">70-130</td><td/></tr><tr style="xELGA_red" id="OBS-2-2"><td>INR</td><td>1.1<sup>1)</sup></td><td/><td id="OBSREF-2-2">2.0-3.5</td><td>-</td></tr><tr id="OBS-2-3"><td>aPTT</td><td>29.3</td><td>sek</td><td id="OBSREF-2-3">23.0-37.0</td><td/></tr><tr id="OBS-2-4"><td>AT III Aktivität</td><td>101</td><td>%</td><td id="OBSREF-2-4">80-135</td><td/></tr><tr id="OBS-2-5"><td>D-Dimer</td><td>0.30</td><td>mg/L</td><td id="OBSREF-2-5">&lt;0.50</td><td/></tr></tbody></table>  <!-- Befundgruppe "Einzelfaktoranalysen" --><p style="xELGA_h3">Einzelfaktoranalysen</p><table><thead><tr><th style="xELGA_colw:40">Analyse</th><th>Ergebnis</th><th>Einheit</th><th>Referenzbereiche</th><th style="xELGA_colw:10">Interpretation</th><th>Externes Labor</th></tr></thead><tbody><tr id="OBS-2-6"><td>Faktor VII Aktivität</td><td>104</td><td>%</td><td id="OBSREF-2-6">75-160</td><td/><td>E</td></tr><tr id="OBS-2-7"><td>Faktor VIII Aktivität</td><td>112</td><td>%</td><td id="OBSREF-2-7">60-160</td><td/><td>E</td></tr></tbody></table>  <!-- Befundgruppe "Thrombophilie Tests" --><p style="xELGA_h3">Thrombophilie Tests</p><table><thead><tr><th style="xELGA_colw:40">Analyse</th><th>Ergebnis</th><th>Einheit</th><th>Referenzbereiche</th><th style="xELGA_colw:10">Interpretation</th></tr></thead><tbody><tr id="OBS-2-8"><td>Protein C Aktivität</td><td>125</td><td>%</td><td id="OBSREF-2-8">70-140</td><td/></tr><tr id="OBS-2-9"><td>Protein S Aktivität</td><td>75</td><td>%</td><td id="OBSREF-2-9">60-140</td><td/></tr></tbody></table><br/></div>
          </text>
          <entry>
            <reference value="urn:uuid:c78c7da0-4a06-4940-9348-b3ac3e6a3994"/>
            <type value="Observation"/>
          </entry>
          <entry>
            <reference value="urn:uuid:77cdc8c3-f323-4c4c-a9cb-865e604782e0"/>
            <type value="Observation"/>
          </entry>
          <entry>
            <reference value="urn:uuid:4c41cc17-8a9c-4eb8-b40b-90418abd277f"/>
            <type value="Observation"/>
          </entry>
        </section>
        <section>
          <title value="Klinische Chemie/Proteindiagnostik"/>
          <code>
            <coding>
              <system value="https://termgit.elga.gv.at/CodeSystem/elga-laborparameterergaenzung"/>
              <code value="500"/>
            </coding>
          </code>
          <text>
            <status value="generated"/><div xmlns="http://www.w3.org/1999/xhtml">  <!-- Befundgruppe "Klinische Chemie" --><p style="xELGA_h3">Klinische Chemie</p><table><thead><tr><th style="xELGA_colw:40">Analyse</th><th>Ergebnis</th><th>Einheit</th><th>Referenzbereiche</th><th style="xELGA_colw:10">Interpretation</th></tr></thead><tbody><tr style="xELGA_red" id="OBS-3-1"><td>Blutsenkung 1h</td><td>33</td><td>mm</td><td id="OBSREF-3-1">1-22</td><td>+</td></tr><tr style="xELGA_red" id="OBS-3-2"><td>Blutsenkung 2h</td><td>56</td><td>mm</td><td id="OBSREF-3-2">2-35</td><td>+</td></tr><tr id="OBS-3-4"><td>Natrium</td><td>137</td><td>mmol/L</td><td id="OBSREF-3-4">135-150</td><td/></tr><tr id="OBS-3-3"><td>Kalium</td><td>4.96</td><td>mmol/L</td><td id="OBSREF-3-3">3.50-5.30</td><td/></tr><tr id="OBS-3-5"><td>Chlorid</td><td>105</td><td>mmol/L</td><td id="OBSREF-3-5">95-110</td><td/></tr><tr style="xELGA_red" id="OBS-3-6"><td>Calcium</td><td>2.71</td><td>mmol/L</td><td id="OBSREF-3-6">2.15-2.60</td><td>+</td></tr><tr id="OBS-3-7"><td>CK</td><td>142</td><td>U/L</td><td id="OBSREF-3-7">0-170</td><td/></tr><tr id="OBS-3-8"><td>Troponin I</td><td>0.01</td><td>ng/L</td><td id="OBSREF-3-8">0.00-0.04</td><td/></tr><tr id="OBS-3-9"><td>ASAT (GOT)</td><td>28</td><td>U/L</td><td id="OBSREF-3-9">0-38</td><td/></tr><tr id="OBS-3-10"><td>ALAT (GPT)</td><td>25</td><td>U/L</td><td id="OBSREF-3-10">0-41</td><td/></tr><tr id="OBS-3-11"><td>Gamma-GT</td><td>21</td><td>U/L</td><td id="OBSREF-3-11">0-66</td><td/></tr><tr id="OBS-3-12"><td>Alk.Phosphatase (AP)</td><td>54</td><td>U/L</td><td id="OBSREF-3-12">40-129</td><td/></tr><tr id="OBS-3-13"><td>Eisen</td><td>91</td><td>µg/dL</td><td id="OBSREF-3-13">80-150</td><td/></tr><tr id="OBS-3-14"><td>Transferrin</td><td>2.1</td><td>g/L</td><td id="OBSREF-3-14">2-3.6</td><td/></tr><tr id="OBS-3-15"><td>Transferrinsättigung</td><td>30.7</td><td>%</td><td id="OBSREF-3-15">16-45</td><td/></tr><tr style="xELGA_red" id="OBS-3-16"><td>Ferritin</td><td>724</td><td>µg/l</td><td id="OBSREF-3-16">15-400</td><td>++</td></tr><tr style="xELGA_red" id="OBS-3-17"><td>Hämoglobin A1c</td><td>1.0</td><td>%</td><td id="OBSREF-3-17">4.4-6.4</td><td>-</td></tr><tr id="OBS-3-18"><td>Cholesterin</td><td>171</td><td>mg/dL</td><td id="OBSREF-3-18">&lt;201</td><td/></tr><tr style="xELGA_red" id="OBS-3-19"><td>HDL-Cholesterin</td><td>36</td><td>mg/dL</td><td id="OBSREF-3-19">&gt;65</td><td>-</td></tr><tr id="OBS-3-20"><td>LDL-Cholesterin</td><td>116</td><td>mg/dL</td><td id="OBSREF-3-20">&lt;155</td><td/></tr><tr id="OBS-3-21"><td>Triglyceride</td><td>98</td><td>mg/dL</td><td id="OBSREF-3-21">&lt;200</td><td/></tr></tbody></table>  <!-- Befundgruppe "Proteindiagnostik" --><p style="xELGA_h3">Proteindiagnostik</p><table><thead><tr><th style="xELGA_colw:40">Analyse</th><th>Ergebnis</th><th>Einheit</th><th>Referenzbereiche</th><th style="xELGA_colw:10">Interpretation</th></tr></thead><tbody><tr style="xELGA_red" id="OBS-3-22"><td>Albumin</td><td>39.7</td><td>g/l</td><td id="OBSREF-3-22">41.9-53.5</td><td>-</td></tr><tr id="OBS-3-23"><td>Alpha-1-Globulin</td><td>1.9</td><td>g/l</td><td id="OBSREF-3-23">1.0-2.1</td><td/></tr><tr style="xELGA_red" id="OBS-3-24"><td>Alpha-2-Globulin</td><td>8.5</td><td>g/l</td><td id="OBSREF-3-24">5.1-8.1</td><td>+</td></tr><tr id="OBS-3-25"><td>Beta-Globulin</td><td>7.1</td><td>g/l</td><td id="OBSREF-3-25">4.7-9.2</td><td/></tr><tr id="OBS-3-26"><td>Gamma-Globulin</td><td>8.5</td><td>g/l</td><td id="OBSREF-3-26">4.7-12.2</td><td/></tr></tbody></table>  <!-- Referenz auf Base 64 codierte Abbildung, wird an dieser Stelle angezeigt --><img src="ELPHOR1"/></div>
          </text>
          <entry>
            <reference value="urn:uuid:5ffdcc92-b78e-4714-91ac-9dcb6911fd0a"/>
            <type value="Observation"/>
          </entry>
          <entry>
            <reference value="urn:uuid:a8ba5342-7597-4222-bf22-d1351a4a0fdb"/>
            <type value="Observation"/>
          </entry>
        </section>
        <section>
          <title value="Hormone/Vitamine/Tumormarker"/>
          <code>
            <coding>
              <system value="https://termgit.elga.gv.at/CodeSystem/elga-laborparameterergaenzung"/>
              <code value="600"/>
            </coding>
          </code>
          <text>
            <status value="generated"/><div xmlns="http://www.w3.org/1999/xhtml">  <!-- Befundgruppe "Hormone" --><p style="xELGA_h3">Hormone</p><table><thead><tr><th style="xELGA_colw:40">Analyse</th><th>Ergebnis</th><th>Einheit</th><th>Referenzbereiche</th><th style="xELGA_colw:10">Interpretation</th></tr></thead><tbody><tr id="OBS-4-1"><td>TSH</td><td>1.00</td><td>µU/mL</td><td id="OBSREF-4-1">0.49-4.67</td><td/></tr><tr style="xELGA_red" id="OBS-4-2"><td>T4</td><td>1.00</td><td>ng/mL</td><td id="OBSREF-4-2">57.92-154.44</td><td>--</td></tr><tr id="OBS-4-3"><td>Freies T4</td><td>1.00</td><td>ng/dL</td><td id="OBSREF-4-3">0.71-1.85</td><td/></tr><tr id="OBS-4-4"><td>T3</td><td>1.00</td><td>ng/mL</td><td id="OBSREF-4-4">0.45-1.37</td><td/></tr><tr style="xELGA_red" id="OBS-4-5"><td>Freies T3</td><td>1.00</td><td>pg/mL</td><td id="OBSREF-4-5">1.45-3.48</td><td>-</td></tr><tr id="OBS-4-6"><td>Prolaktin</td><td>Wert folgt</td><td>ng/mL</td><td id="OBSREF-4-6">0.33-27.33</td><td/></tr></tbody></table>  <!-- Befundgruppe "Vitamine" --><p style="xELGA_h3">Vitamine</p><table><thead><tr><th style="xELGA_colw:40">Analyse</th><th>Ergebnis</th><th>Einheit</th><th>Referenzbereiche</th><th style="xELGA_colw:10">Interpretation</th></tr></thead><tfoot><tr><td><tfoot id="fn2"><sup>2)</sup>Referenzwerte sind NICHT alters- u.
                                            geschlechtsabhängig</tfoot></td></tr></tfoot><tbody><tr id="OBS-5-1"><td>Folsäure</td><td>7.3</td><td>ng/mL</td><td id="OBSREF-5-1">4.6-18.7<sup>2)</sup></td><td/></tr><tr id="OBS-5-2"><td>Vitamin B12</td><td>366</td><td>pmol/L</td><td id="OBSREF-5-2">141-489<sup>2)</sup></td><td/></tr><tr id="OBS-5-3"><td>Vitamin B15</td><td>390</td><td>pmol/L</td><td id="OBSREF-5-3">290-490<sup>2)</sup></td><td/></tr></tbody></table></div>
          </text>
          <entry>
            <reference value="urn:uuid:acfff713-1882-463f-bbba-9822082ce595"/>
            <type value="Observation"/>
          </entry>
          <entry>
            <reference value="urn:uuid:3fa2a893-37d5-4b07-adbb-18bc788a2ae5"/>
            <type value="Observation"/>
          </entry>
        </section>
        <section>
          <title value="Allergiediagnostik"/>
          <code>
            <coding>
              <system value="https://termgit.elga.gv.at/CodeSystem/elga-laborparameterergaenzung"/>
              <code value="1800"/>
            </coding>
          </code>
          <text>
            <status value="generated"/><div xmlns="http://www.w3.org/1999/xhtml">  <!-- Befundgruppe "Globalmarker" --><p style="xELGA_h3">Globalmarker</p><table><thead><tr><th style="xELGA_colw:70">Analyse</th><th>Ergebnis</th><th>Interpretation</th></tr></thead><tfoot><tr><td>
                                        Die &quot;erweiterten Analyseinformationen&quot; wurden direkt unter die Analysenbezeichnungen geschrieben.<br/>(Hier kann sonst ein Kommentar zu den Globalmarkern stehen.) 
                                    </td></tr></tfoot><tbody><tr id="OBS-6-1"><td>sx1 Inhalatives Screening<br/><span style="italics">Lieschgras, Roggen, Birke, Beifuß, Dermatophagoides pteronyssinus, Katzenschuppen, Hundeschuppen, Cladosporium herbarum</span></td><td>negativ</td><td/></tr><tr style="xELGA_red" id="OBS-6-2"><td>mx1 Schimmelpilzemix 1<br/><span style="italics">Alternaria alternata, Aspergillus fumigatus, Cladosporium herbarum, Penicillium notatum</span></td><td>positiv</td><td>A</td></tr></tbody></table>  <!-- Befundgruppe "Inhalationsallergene IgE" --><p style="xELGA_h3">Inhalationsallergene IgE</p><table><thead><tr><th style="xELGA_colw:40">Analyse</th><th>Ergebnis</th><th>Einheit</th><th>Referenzbereich</th><th>Interpretation</th></tr></thead><tfoot><tr><td>
                                        Drei Optionen der Befunddarstellung der Allergiediagnostik: 1) quantitativ, 2) mit RAST-Klasse und 3) kombiniert (quantitativ + RAST-Interpretation) 
                                    </td></tr></tfoot><tbody><tr id="OBS-7-1"><td>Penicillum notatum (Pinselschimmel)</td><td>&lt;0.35</td><td>kU/L</td><td id="OBSREF-6-1">&lt;0.35</td><td/></tr><tr id="OBS-7-2"><td>Cladosporium herbarum IgE RAST</td><td>0</td><td>RAST</td><td/><td/></tr><tr style="xELGA_red" id="OBS-7-3"><td>Alternaria alternata (Alternaria tenuis) IgE</td><td>5.18</td><td>kU/L</td><td>&lt;0.35</td><td>RAST 3</td></tr></tbody></table></div>
          </text>
          <entry>
            <reference value="urn:uuid:79a4f6e1-cb8e-4760-810a-a796ef73ca1f"/>
            <type value="Observation"/>
          </entry>
          <entry>
            <reference value="urn:uuid:691077ee-c2ae-4283-8088-718c7cbea23a"/>
            <type value="Observation"/>
          </entry>
        </section>
        <section>
          <title value="Befundbewertung"/>
          <code>
            <coding>
              <system value="https://termgit.elga.gv.at/CodeSystem/elga-laborparameterergaenzung"/>
              <code value="20"/>
            </coding>
            <coding>
              <system value="http://loinc.org"/>
              <code value="48767-8"/>
            </coding>
          </code>
          <text>
            <status value="generated"/><div xmlns="http://www.w3.org/1999/xhtml"><table><thead><tr><th>Befundbewertung</th></tr></thead><tbody><tr><td><p><span id="commonComment1">Zur Bestätigung des
                                                Befundes neuerliche Untersuchung in zwei Wochen
                                                empfohlen.</span></p></td></tr></tbody></table></div>
          </text>
        </section>
      </Composition>
    </resource>
  </entry>
  <entry>
    <fullUrl value="urn:uuid:50b84d39-44c6-434e-aa69-349be7a30114"/>
    <resource>
      <DiagnosticReport>
        <id value="50b84d39-44c6-434e-aa69-349be7a30114"/>
        <meta>
          <profile value="http://hl7.eu/fhir/laboratory/StructureDefinition/DiagnosticReport-eu-lab"/>
        </meta>
        <extension url="http://hl7.org/fhir/5.0/StructureDefinition/extension-DiagnosticReport.composition">
          <valueReference>
            <reference value="urn:uuid:5869a2cb-4083-43dc-b3e8-0c98e440f50a"/>
            <type value="Composition"/>
          </valueReference>
        </extension>
        <identifier>
          <system value="urn:oid:1.2.40.0.34.99.4613.3.1"/>
          <value value="122082"/>
          <assigner>
            <display value="Amadeus Spital"/>
          </assigner>
        </identifier>
        <basedOn>
          <reference value="urn:uuid:e834874a-cc56-452b-9e4d-2554a5d1ffd9"/>
          <type value="ServiceRequest"/>
        </basedOn>
        <status value="preliminary"/>
        <category>
          <coding>
            <system value="http://loinc.org"/>
            <code value="26436-6"/>
          </coding>
        </category>
        <code>
          <coding>
            <system value="http://loinc.org"/>
            <code value="11502-2"/>
          </coding>
        </code>
        <subject>
          <reference value="urn:uuid:718cc2e3-a4ee-41a1-a5f3-04307f76319f"/>
          <type value="Patient"/>
        </subject>
        <encounter>
          <reference value="urn:uuid:8bd85ed6-22b9-427a-a4d7-85ff9176719e"/>
          <type value="Encounter"/>
        </encounter>
        <effectiveDateTime value="2021-06-01T06:35:00+02:00"/>
        <specimen>
          <reference value="urn:uuid:43d9bd23-cb82-43bf-8ed4-9c24bb962a38"/>
          <type value="Specimen"/>
        </specimen>
        <specimen>
          <reference value="urn:uuid:acbd3959-5cbd-420e-b66d-1cc51885f575"/>
          <type value="Specimen"/>
        </specimen>
      </DiagnosticReport>
    </resource>
  </entry>
  <entry>
    <fullUrl value="urn:uuid:718cc2e3-a4ee-41a1-a5f3-04307f76319f"/>
    <resource>
      <Patient>
        <id value="718cc2e3-a4ee-41a1-a5f3-04307f76319f"/>
        <meta>
          <profile value="http://hl7.eu/fhir/laboratory/StructureDefinition/Patient-eu-lab"/>
        </meta>
        <extension url="http://hl7.org/fhir/StructureDefinition/patient-religion">
          <valueCodeableConcept>
            <coding>
              <system value="http://hl7.at/fhir/HL7ATCoreProfiles/4.0.1/CodeSystem/at-core-cs-religion"/>
              <code value="101"/>
            </coding>
          </valueCodeableConcept>
        </extension>
        <extension url="http://hl7.org/fhir/StructureDefinition/patient-birthPlace">
          <valueAddress>
            <line value="Musterstraße 23b"/>
            <city value="Graz"/>
            <state value="Steiermark"/>
            <postalCode value="8011"/>
            <country value="AUT"/>
          </valueAddress>
        </extension>
        <identifier>
          <type>
            <coding>
              <system value="http://terminology.hl7.org/CodeSystem/v2-0203"/>
              <code value="PI"/>
              <display value="Patient internal identifier"/>
            </coding>
          </type>
          <system value="urn:oid:1.2.40.0.34.99.4613.3.2"/>
          <value value="121212"/>
          <assigner>
            <display value="Amadeus Spital"/>
          </assigner>
        </identifier>
        <identifier>
          <type>
            <coding>
              <system value="http://terminology.hl7.org/CodeSystem/v2-0203"/>
              <code value="SS"/>
              <display value="Social Security Number"/>
            </coding>
          </type>
          <system value="urn:oid:1.2.40.0.10.1.4.3.1"/>
          <value value="1111241261"/>
          <assigner>
            <display value="Dachverband der österreichischen Sozialversicherungsträger"/>
          </assigner>
        </identifier>
        <name>
          <family value="VorDerHeirat">
            <extension url="http://hl7.org/fhir/StructureDefinition/iso21090-EN-qualifier">
              <valueCode value="BR"/>
            </extension>
          </family>
          <given value="Maria"/>
          <given value="Johanna"/>
          <prefix value="Dr.">
            <extension url="http://hl7.org/fhir/StructureDefinition/iso21090-EN-qualifier">
              <valueCode value="AC"/>
            </extension>
          </prefix>
          <suffix value="BSc">
            <extension url="http://hl7.org/fhir/StructureDefinition/iso21090-EN-qualifier">
              <valueCode value="AC"/>
            </extension>
          </suffix>
        </name>
        <telecom>
          <system value="phone"/>
          <value value="+43.2682.40400"/>
          <use value="home"/>
        </telecom>
        <telecom>
          <system value="phone"/>
          <value value="+43.664.1234567"/>
          <use value="mobile"/>
        </telecom>
        <telecom>
          <system value="email"/>
          <value value="musterfrau@provider.at"/>
        </telecom>
        <gender value="female"/>
        <birthDate value="1961-12-24"/>
        <address>
          <use value="home"/>
          <type value="both"/>
          <line value="Musterstraße 13a"/>
          <city value="Eisenstadt"/>
          <state value="Burgenland"/>
          <postalCode value="7000"/>
          <country value="AUT"/>
        </address>
        <maritalStatus>
          <coding>
            <system value="http://terminology.hl7.org/CodeSystem/v3-MaritalStatus"/>
            <code value="M"/>
          </coding>
        </maritalStatus>
      </Patient>
    </resource>
  </entry>
  <entry>
    <fullUrl value="urn:uuid:e834874a-cc56-452b-9e4d-2554a5d1ffd9"/>
    <resource>
      <ServiceRequest>
        <id value="e834874a-cc56-452b-9e4d-2554a5d1ffd9"/>
        <meta>
          <profile value="http://hl7.eu/fhir/laboratory/StructureDefinition/ServiceRequest-eu-lab"/>
        </meta>
        <identifier>
          <system value="urn:oid:2.16.840.1.113883.2.16.1.99.3.1"/>
          <value value="121201-023"/>
          <assigner>
            <display value="Musterklinikum Unterstadt"/>
          </assigner>
        </identifier>
        <status value="completed"/>
        <intent value="order"/>
        <subject>
          <reference value="urn:uuid:718cc2e3-a4ee-41a1-a5f3-04307f76319f"/>
          <type value="Patient"/>
        </subject>
        <authoredOn value="2021-06-01T06:35:00+02:00"/>
        <requester>
          <reference value="urn:uuid:ad569494-4380-4928-9fcc-b5dbe62ec7f4"/>
          <type value="PractitionerRole"/>
        </requester>
      </ServiceRequest>
    </resource>
  </entry>
  <entry>
    <fullUrl value="urn:uuid:44a3e5dc-ad19-44cf-868f-601f836b46eb"/>
    <resource>
      <PractitionerRole>
        <id value="44a3e5dc-ad19-44cf-868f-601f836b46eb"/>
        <identifier>
          <system value="urn:oid:1.2.40.0.34.99.4613.3.3"/>
          <value value="4444"/>
          <assigner>
            <display value="Amadeus Spital"/>
          </assigner>
        </identifier>
        <practitioner>
          <reference value="urn:uuid:211b5a7e-e84c-4ffe-bef8-4f3ec0de605b"/>
          <type value="Practitioner"/>
        </practitioner>
        <organization>
          <reference value="urn:uuid:c2cffeff-7aed-4783-9325-4f8f9d81a9f6"/>
          <type value="Organization"/>
        </organization>
      </PractitionerRole>
    </resource>
  </entry>
  <entry>
    <fullUrl value="urn:uuid:a51148d5-e737-411f-8a86-e1c84e1adb1d"/>
    <resource>
      <PractitionerRole>
        <id value="a51148d5-e737-411f-8a86-e1c84e1adb1d"/>
        <practitioner>
          <reference value="urn:uuid:5e69b348-4744-49cf-bba4-cb65636e88f2"/>
          <type value="Practitioner"/>
        </practitioner>
        <organization>
          <reference value="urn:uuid:96a26e0d-da95-4d7f-b4fa-75a94de0cc6d"/>
          <type value="Organization"/>
        </organization>
        <code>
          <coding>
            <code value="OA"/>
          </coding>
        </code>
      </PractitionerRole>
    </resource>
  </entry>
  <entry>
    <fullUrl value="urn:uuid:5e69b348-4744-49cf-bba4-cb65636e88f2"/>
    <resource>
      <Practitioner>
        <id value="5e69b348-4744-49cf-bba4-cb65636e88f2"/>
        <identifier>
          <system value="urn:oid:1.2.40.0.34.99.4613.3.3"/>
          <value value="1111"/>
          <assigner>
            <display value="Amadeus Spital"/>
          </assigner>
        </identifier>
        <name>
          <family value="Isabella"/>
          <given value="Stern"/>
          <prefix value="Dr."/>
        </name>
        <telecom>
          <system value="phone"/>
          <value value="+43.1.3453446.1111"/>
          <use value="work"/>
        </telecom>
        <qualification>
          <code>
            <coding>
              <system value="https://termgit.elga.gv.at/CodeSystem/elga-fachaerzte"/>
              <code value="124"/>
            </coding>
          </code>
        </qualification>
      </Practitioner>
    </resource>
  </entry>
  <entry>
    <fullUrl value="urn:uuid:96a26e0d-da95-4d7f-b4fa-75a94de0cc6d"/>
    <resource>
      <Organization>
        <id value="96a26e0d-da95-4d7f-b4fa-75a94de0cc6d"/>
        <identifier>
          <system value="urn:ietf:rfc:3986"/>
          <value value="urn:oid:1.2.40.0.34.99.4613"/>
          <assigner>
            <display value="GDA Index"/>
          </assigner>
        </identifier>
        <name value="Amadeus Spital - Labor"/>
        <telecom>
          <system value="phone"/>
          <value value="+43.1.3453446.0"/>
        </telecom>
        <telecom>
          <system value="fax"/>
          <value value="+43.1.3453446.4674"/>
        </telecom>
        <telecom>
          <system value="email"/>
          <value value="info@amadeusspital.at"/>
        </telecom>
        <telecom>
          <system value="url"/>
          <value value="www.amadeusspital.at"/>
        </telecom>
        <address>
          <line value="Währinger Gürtel 18-20">
            <extension url="http://hl7.org/fhir/StructureDefinition/iso21090-ADXP-streetName">
              <valueString value="Währinger Gürtel"/>
            </extension>
            <extension url="http://hl7.org/fhir/StructureDefinition/iso21090-ADXP-houseNumber">
              <valueString value="18-20"/>
            </extension>
          </line>
          <city value="Wien"/>
          <state value="Wien"/>
          <postalCode value="1090"/>
          <country value="AUT"/>
        </address>
      </Organization>
    </resource>
  </entry>
  <entry>
    <fullUrl value="urn:uuid:78652382-bead-4902-8471-428351975e6e"/>
    <resource>
      <Device>
        <id value="78652382-bead-4902-8471-428351975e6e"/>
        <deviceName>
          <name value="LAB-IS Manufacturer Ltd."/>
          <type value="model-name"/>
        </deviceName>
        <deviceName>
          <name value="LIS-Haydn"/>
          <type value="other"/>
        </deviceName>
        <owner>
          <reference value="urn:uuid:001d44d8-e1c6-4da5-aee2-5694e71b873e"/>
          <type value="Organization"/>
        </owner>
      </Device>
    </resource>
  </entry>
  <entry>
    <fullUrl value="urn:uuid:001d44d8-e1c6-4da5-aee2-5694e71b873e"/>
    <resource>
      <Organization>
        <id value="001d44d8-e1c6-4da5-aee2-5694e71b873e"/>
        <identifier>
          <system value="urn:ietf:rfc:3986"/>
          <value value="urn:oid:1.2.40.0.34.99.4613"/>
          <assigner>
            <display value="GDA Index"/>
          </assigner>
        </identifier>
        <name value="Amadeus Spital - Labor"/>
        <telecom>
          <system value="phone"/>
          <value value="+43.1.3453446.0"/>
        </telecom>
        <telecom>
          <system value="fax"/>
          <value value="+43.1.3453446.4674"/>
        </telecom>
        <telecom>
          <system value="email"/>
          <value value="info@amadeusspital.at"/>
        </telecom>
        <telecom>
          <system value="url"/>
          <value value="www.amadeusspital.at"/>
        </telecom>
        <address>
          <line value="Währinger Gürtel 18-20">
            <extension url="http://hl7.org/fhir/StructureDefinition/iso21090-ADXP-streetName">
              <valueString value="Währinger Gürtel"/>
            </extension>
            <extension url="http://hl7.org/fhir/StructureDefinition/iso21090-ADXP-houseNumber">
              <valueString value="18-20"/>
            </extension>
          </line>
          <city value="Wien"/>
          <state value="Wien"/>
          <postalCode value="1090"/>
          <country value="AUT"/>
        </address>
      </Organization>
    </resource>
  </entry>
  <entry>
    <fullUrl value="urn:uuid:9aabfdd1-7053-4aa7-b28a-64428c08725b"/>
    <resource>
      <Organization>
        <id value="9aabfdd1-7053-4aa7-b28a-64428c08725b"/>
        <identifier>
          <system value="urn:ietf:rfc:3986"/>
          <value value="urn:oid:1.2.40.0.34.99.4613"/>
          <assigner>
            <display value="GDA Index"/>
          </assigner>
        </identifier>
        <name value="Amadeus Spital - Labor"/>
        <telecom>
          <system value="phone"/>
          <value value="+43.1.3453446.0"/>
        </telecom>
        <address>
          <line value="Währinger Gürtel 18-20">
            <extension url="http://hl7.org/fhir/StructureDefinition/iso21090-ADXP-streetName">
              <valueString value="Währinger Gürtel"/>
            </extension>
            <extension url="http://hl7.org/fhir/StructureDefinition/iso21090-ADXP-houseNumber">
              <valueString value="18-20"/>
            </extension>
          </line>
          <city value="Wien"/>
          <state value="Wien"/>
          <postalCode value="1090"/>
          <country value="AUT"/>
        </address>
      </Organization>
    </resource>
  </entry>
  <entry>
    <fullUrl value="urn:uuid:668552ab-f1a2-48c8-8867-38d8ead13a28"/>
    <resource>
      <PractitionerRole>
        <id value="668552ab-f1a2-48c8-8867-38d8ead13a28"/>
        <identifier>
          <system value="urn:oid:1.2.40.0.34.99.4613.3.3"/>
          <value value="2222"/>
          <assigner>
            <display value="Amadeus Spital"/>
          </assigner>
        </identifier>
        <practitioner>
          <reference value="urn:uuid:2214a027-85d5-49fa-a561-796db78a608b"/>
          <type value="Practitioner"/>
        </practitioner>
        <organization>
          <reference value="urn:uuid:67037244-4bed-4adf-af6d-387e35aedc1c"/>
          <type value="Organization"/>
        </organization>
      </PractitionerRole>
    </resource>
  </entry>
  <entry>
    <fullUrl value="urn:uuid:2214a027-85d5-49fa-a561-796db78a608b"/>
    <resource>
      <Practitioner>
        <id value="2214a027-85d5-49fa-a561-796db78a608b"/>
        <name>
          <family value="Sigrid"/>
          <given value="Kollmann"/>
          <prefix value="Univ.-Prof.Dr."/>
        </name>
        <telecom>
          <system value="phone"/>
          <value value="+43.1.3453446.2222"/>
          <use value="work"/>
        </telecom>
        <address>
          <line value="Währinger Gürtel 18-20">
            <extension url="http://hl7.org/fhir/StructureDefinition/iso21090-ADXP-streetName">
              <valueString value="Währinger Gürtel"/>
            </extension>
            <extension url="http://hl7.org/fhir/StructureDefinition/iso21090-ADXP-houseNumber">
              <valueString value="18-20"/>
            </extension>
          </line>
          <city value="Wien"/>
          <state value="Wien"/>
          <postalCode value="1090"/>
          <country value="AUT"/>
        </address>
      </Practitioner>
    </resource>
  </entry>
  <entry>
    <fullUrl value="urn:uuid:67037244-4bed-4adf-af6d-387e35aedc1c"/>
    <resource>
      <Organization>
        <id value="67037244-4bed-4adf-af6d-387e35aedc1c"/>
        <identifier>
          <system value="urn:ietf:rfc:3986"/>
          <value value="urn:oid:1.2.40.0.34.99.4613"/>
          <assigner>
            <display value="GDA Index"/>
          </assigner>
        </identifier>
        <name value="Amadeus Spital - Labor"/>
        <telecom>
          <system value="phone"/>
          <value value="+43.1.3453446.0"/>
        </telecom>
        <telecom>
          <system value="fax"/>
          <value value="+43.1.3453446.4674"/>
        </telecom>
        <telecom>
          <system value="email"/>
          <value value="info@amadeusspital.at"/>
        </telecom>
        <telecom>
          <system value="url"/>
          <value value="www.amadeusspital.at"/>
        </telecom>
        <address>
          <line value="Währinger Gürtel 18-20">
            <extension url="http://hl7.org/fhir/StructureDefinition/iso21090-ADXP-streetName">
              <valueString value="Währinger Gürtel"/>
            </extension>
            <extension url="http://hl7.org/fhir/StructureDefinition/iso21090-ADXP-houseNumber">
              <valueString value="18-20"/>
            </extension>
          </line>
          <city value="Wien"/>
          <state value="Wien"/>
          <postalCode value="1090"/>
          <country value="AUT"/>
        </address>
      </Organization>
    </resource>
  </entry>
  <entry>
    <fullUrl value="urn:uuid:ad569494-4380-4928-9fcc-b5dbe62ec7f4"/>
    <resource>
      <PractitionerRole>
        <id value="ad569494-4380-4928-9fcc-b5dbe62ec7f4"/>
        <identifier>
          <system value="urn:ietf:rfc:3986"/>
          <value value="urn:oid:1.2.40.0.34.99.1"/>
          <assigner>
            <display value="GDA Index"/>
          </assigner>
        </identifier>
        <practitioner>
          <reference value="urn:uuid:a466be86-e2f1-4c44-a3a2-a7dfb67d96fe"/>
          <type value="Practitioner"/>
        </practitioner>
        <organization>
          <reference value="urn:uuid:5a574a97-5894-4940-b2dd-82f0078b4df8"/>
          <type value="Organization"/>
        </organization>
      </PractitionerRole>
    </resource>
  </entry>
  <entry>
    <fullUrl value="urn:uuid:a466be86-e2f1-4c44-a3a2-a7dfb67d96fe"/>
    <resource>
      <Practitioner>
        <id value="a466be86-e2f1-4c44-a3a2-a7dfb67d96fe"/>
        <name>
          <family value="Frank"/>
          <given value="Dieter"/>
          <prefix value="Dr.">
            <extension url="http://hl7.org/fhir/StructureDefinition/iso21090-EN-qualifier">
              <valueCode value="AC"/>
            </extension>
          </prefix>
        </name>
        <telecom>
          <system value="phone"/>
          <value value="01.47110815.123"/>
          <use value="work"/>
        </telecom>
        <address>
          <line value="Taborstraße 16"/>
          <city value="Wien"/>
          <postalCode value="1020"/>
          <country value="AUT"/>
        </address>
      </Practitioner>
    </resource>
  </entry>
  <entry>
    <fullUrl value="urn:uuid:5a574a97-5894-4940-b2dd-82f0078b4df8"/>
    <resource>
      <Organization>
        <id value="5a574a97-5894-4940-b2dd-82f0078b4df8"/>
        <identifier>
          <system value="urn:ietf:rfc:3986"/>
          <value value="urn:oid:1.2.40.0.34.99.1"/>
          <assigner>
            <display value="GDA Index"/>
          </assigner>
        </identifier>
        <name value="Musterklinikum Unterstadt"/>
        <telecom>
          <system value="phone"/>
          <value value="01.47110815"/>
          <use value="work"/>
        </telecom>
      </Organization>
    </resource>
  </entry>
  <entry>
    <fullUrl value="urn:uuid:8bd85ed6-22b9-427a-a4d7-85ff9176719e"/>
    <resource>
      <Encounter>
        <id value="8bd85ed6-22b9-427a-a4d7-85ff9176719e"/>
        <identifier>
          <system value="urn:oid:1.2.40.0.34.99.4613.3.4"/>
          <value value="Az123456"/>
          <assigner>
            <display value="Amadeus Spital"/>
          </assigner>
        </identifier>
        <status value="finished"/>
        <class>
          <system value="http://terminology.hl7.org/CodeSystem/v3-ActCode"/>
          <code value="IMP"/>
        </class>
        <participant>
          <individual>
            <reference value="urn:uuid:1fb643b1-671c-4b0a-97e1-73888dca8f5d"/>
            <type value="PractitionerRole"/>
          </individual>
        </participant>
        <period>
          <start value="2021-05-28T15:20:00+02:00"/>
          <end value="2021-06-01T10:00:00+02:00"/>
        </period>
        <location>
          <location>
            <reference value="urn:uuid:7794db92-5d23-4778-b5d2-307c15c6c8cd"/>
            <type value="Location"/>
          </location>
        </location>
      </Encounter>
    </resource>
  </entry>
  <entry>
    <fullUrl value="urn:uuid:1fb643b1-671c-4b0a-97e1-73888dca8f5d"/>
    <resource>
      <PractitionerRole>
        <id value="1fb643b1-671c-4b0a-97e1-73888dca8f5d"/>
        <identifier>
          <system value="urn:oid:1.2.40.0.34.99.4613.3.3"/>
          <value value="5555"/>
          <assigner>
            <display value="Amadeus Spital"/>
          </assigner>
        </identifier>
        <practitioner>
          <reference value="urn:uuid:26fcc61b-21e8-4a5f-9830-e48a1f972608"/>
          <type value="Practitioner"/>
        </practitioner>
      </PractitionerRole>
    </resource>
  </entry>
  <entry>
    <fullUrl value="urn:uuid:26fcc61b-21e8-4a5f-9830-e48a1f972608"/>
    <resource>
      <Practitioner>
        <id value="26fcc61b-21e8-4a5f-9830-e48a1f972608"/>
        <name>
          <family value="Huber"/>
          <given value="Hannes"/>
          <prefix value="Dr."/>
        </name>
        <telecom>
          <system value="phone"/>
          <value value="+43.6138.3453446.5555"/>
          <use value="work"/>
        </telecom>
      </Practitioner>
    </resource>
  </entry>
  <entry>
    <fullUrl value="urn:uuid:7794db92-5d23-4778-b5d2-307c15c6c8cd"/>
    <resource>
      <Location>
        <id value="7794db92-5d23-4778-b5d2-307c15c6c8cd"/>
        <type>
          <coding>
            <system value="https://termgit.elga.gv.at/CodeSystem/elga-gtelvogdarollen"/>
            <code value="300"/>
          </coding>
        </type>
        <managingOrganization>
          <reference value="urn:uuid:16d655dd-677c-441f-a427-065eb9509eb0"/>
          <type value="Organization"/>
        </managingOrganization>
      </Location>
    </resource>
  </entry>
  <entry>
    <fullUrl value="urn:uuid:16d655dd-677c-441f-a427-065eb9509eb0"/>
    <resource>
      <Organization>
        <id value="16d655dd-677c-441f-a427-065eb9509eb0"/>
        <identifier>
          <system value="urn:ietf:rfc:3986"/>
          <value value="urn:oid:1.2.40.0.34.99.4613"/>
          <assigner>
            <display value="GDA Index"/>
          </assigner>
        </identifier>
        <name value="Amadeus Spital - Chirurgische Abteilung"/>
        <telecom>
          <system value="phone"/>
          <value value="+43.6138.3453446.0"/>
        </telecom>
        <telecom>
          <system value="fax"/>
          <value value="+43.6138.3453446.4674"/>
        </telecom>
        <telecom>
          <system value="email"/>
          <value value="info@amadeusspital.at"/>
        </telecom>
        <telecom>
          <system value="url"/>
          <value value="www.amadeusspital.at"/>
        </telecom>
        <address>
          <line value="Mozartgasse 1-7">
            <extension url="http://hl7.org/fhir/StructureDefinition/iso21090-ADXP-streetName">
              <valueString value="Mozartgasse"/>
            </extension>
            <extension url="http://hl7.org/fhir/StructureDefinition/iso21090-ADXP-houseNumber">
              <valueString value="1-7"/>
            </extension>
          </line>
          <city value="St.Wolfgang"/>
          <state value="Salzburg"/>
          <postalCode value="5350"/>
          <country value="AUT"/>
        </address>
      </Organization>
    </resource>
  </entry>
  <entry>
    <fullUrl value="urn:uuid:211b5a7e-e84c-4ffe-bef8-4f3ec0de605b"/>
    <resource>
      <Practitioner>
        <id value="211b5a7e-e84c-4ffe-bef8-4f3ec0de605b"/>
        <name>
          <family value="Humpel"/>
          <given value="Florian"/>
          <prefix value="Dr.">
            <extension url="http://hl7.org/fhir/StructureDefinition/iso21090-EN-qualifier">
              <valueCode value="AC"/>
            </extension>
          </prefix>
        </name>
        <telecom>
          <system value="phone"/>
          <value value="+43.1.3453446.1111"/>
          <use value="work"/>
        </telecom>
        <address>
          <line value="Währinger Gürtel 18-20">
            <extension url="http://hl7.org/fhir/StructureDefinition/iso21090-ADXP-streetName">
              <valueString value="Währinger Gürtel"/>
            </extension>
            <extension url="http://hl7.org/fhir/StructureDefinition/iso21090-ADXP-houseNumber">
              <valueString value="18-20"/>
            </extension>
          </line>
          <city value="Wien"/>
          <state value="Wien"/>
          <postalCode value="1090"/>
          <country value="AUT"/>
        </address>
      </Practitioner>
    </resource>
  </entry>
  <entry>
    <fullUrl value="urn:uuid:c2cffeff-7aed-4783-9325-4f8f9d81a9f6"/>
    <resource>
      <Organization>
        <id value="c2cffeff-7aed-4783-9325-4f8f9d81a9f6"/>
        <identifier>
          <system value="urn:ietf:rfc:3986"/>
          <value value="urn:oid:1.2.40.0.34.99.4613"/>
          <assigner>
            <display value="GDA Index"/>
          </assigner>
        </identifier>
        <name value="Amadeus Spital - Labor"/>
        <telecom>
          <system value="phone"/>
          <value value="+43.1.3453446.0"/>
        </telecom>
        <telecom>
          <system value="fax"/>
          <value value="+43.1.3453446.4674"/>
        </telecom>
        <telecom>
          <system value="email"/>
          <value value="info@amadeusspital.at"/>
        </telecom>
        <telecom>
          <system value="url"/>
          <value value="www.amadeusspital.at"/>
        </telecom>
        <address>
          <line value="Währinger Gürtel 18-20">
            <extension url="http://hl7.org/fhir/StructureDefinition/iso21090-ADXP-streetName">
              <valueString value="Währinger Gürtel"/>
            </extension>
            <extension url="http://hl7.org/fhir/StructureDefinition/iso21090-ADXP-houseNumber">
              <valueString value="18-20"/>
            </extension>
          </line>
          <city value="Wien"/>
          <state value="Wien"/>
          <postalCode value="1090"/>
          <country value="AUT"/>
        </address>
      </Organization>
    </resource>
  </entry>
  <entry>
    <fullUrl value="urn:uuid:43d9bd23-cb82-43bf-8ed4-9c24bb962a38"/>
    <resource>
      <Specimen>
        <id value="43d9bd23-cb82-43bf-8ed4-9c24bb962a38"/>
        <accessionIdentifier>
          <system value="urn:oid:1.2.40.0.34.99.4613.22.3"/>
          <value value="BL-080212-02"/>
        </accessionIdentifier>
        <type>
          <coding>
            <system value="http://snomed.info/sct"/>
            <code value="258580003"/>
          </coding>
        </type>
        <subject>
          <reference value="urn:uuid:718cc2e3-a4ee-41a1-a5f3-04307f76319f"/>
          <type value="Patient"/>
        </subject>
        <receivedTime value="2021-06-01T08:15:00+02:00"/>
        <collection>
          <collectedDateTime value="2021-06-01T06:35:00+02:00"/>
          <bodySite>
            <coding>
              <system value="http://terminology.hl7.org/CodeSystem/v3-ActSite"/>
              <code value="LACF"/>
            </coding>
          </bodySite>
        </collection>
      </Specimen>
    </resource>
  </entry>
  <entry>
    <fullUrl value="urn:uuid:acbd3959-5cbd-420e-b66d-1cc51885f575"/>
    <resource>
      <Specimen>
        <id value="acbd3959-5cbd-420e-b66d-1cc51885f575"/>
        <accessionIdentifier>
          <system value="urn:oid:1.2.40.0.34.99.4613.22.3"/>
          <value value="PL-121201-01"/>
        </accessionIdentifier>
        <type>
          <coding>
            <system value="http://snomed.info/sct"/>
            <code value="119361006"/>
          </coding>
        </type>
        <subject>
          <reference value="urn:uuid:718cc2e3-a4ee-41a1-a5f3-04307f76319f"/>
          <type value="Patient"/>
        </subject>
        <receivedTime value="2021-06-01T08:15:00+02:00"/>
        <collection>
          <collectedDateTime value="2021-06-01T06:35:00+02:00"/>
          <bodySite>
            <coding>
              <system value="http://terminology.hl7.org/CodeSystem/v3-ActSite"/>
              <code value="LACF"/>
            </coding>
          </bodySite>
        </collection>
      </Specimen>
    </resource>
  </entry>
  <entry>
    <fullUrl value="urn:uuid:b98d04c3-ed55-4c10-9f2d-6a10df76a0b3"/>
    <resource>
      <Observation>
        <id value="b98d04c3-ed55-4c10-9f2d-6a10df76a0b3"/>
        <meta>
          <profile value="http://hl7.eu/fhir/laboratory/StructureDefinition/Observation-resultslab-eu-lab"/>
        </meta>
        <status value="final"/>
        <category>
          <coding>
            <system value="http://terminology.hl7.org/CodeSystem/observation-category"/>
            <code value="laboratory"/>
          </coding>
        </category>
        <category>
          <coding>
            <system value="https://termgit.elga.gv.at/CodeSystem/elga-laborparameterergaenzung"/>
            <code value="03010"/>
          </coding>
        </category>
        <code>
          <coding>
            <system value="https://termgit.elga.gv.at/CodeSystem/elga-laborparameterergaenzung"/>
            <code value="03010"/>
          </coding>
        </code>
        <subject>
          <reference value="urn:uuid:718cc2e3-a4ee-41a1-a5f3-04307f76319f"/>
        </subject>
        <effectiveDateTime value="1900-01-01">
          <extension url="http://hl7.org/fhir/StructureDefinition/data-absent-reason">
            <valueCode value="not-applicable"/>
          </extension>
        </effectiveDateTime>
        <issued value="2021-06-01T13:01:00+02:00"/>
        <performer>
          <reference value="urn:uuid:44a3e5dc-ad19-44cf-868f-601f836b46eb"/>
          <type value="PractitionerRole"/>
        </performer>
        <hasMember>
          <reference value="urn:uuid:7eccd3f1-6460-42e0-8ea3-1558e95da042"/>
          <type value="Observation"/>
        </hasMember>
        <hasMember>
          <reference value="urn:uuid:e7d5eb77-f90e-41e8-ab95-06c03076d1cd"/>
          <type value="Observation"/>
        </hasMember>
        <hasMember>
          <reference value="urn:uuid:6fa26fce-5e02-4aa9-a744-1aa9404fc221"/>
          <type value="Observation"/>
        </hasMember>
        <hasMember>
          <reference value="urn:uuid:1466d0bd-1c99-4f99-b3c9-0164a234b9fc"/>
          <type value="Observation"/>
        </hasMember>
        <hasMember>
          <reference value="urn:uuid:b5283ced-02cd-48df-9c0d-af74fed87522"/>
          <type value="Observation"/>
        </hasMember>
        <hasMember>
          <reference value="urn:uuid:22d9dbdb-54a7-4b3e-8817-437a82159761"/>
          <type value="Observation"/>
        </hasMember>
        <hasMember>
          <reference value="urn:uuid:9b6d2f64-aa97-4921-af0c-0c156967d429"/>
          <type value="Observation"/>
        </hasMember>
        <hasMember>
          <reference value="urn:uuid:837f26f1-5d80-42e3-8081-e8b84a0858ac"/>
          <type value="Observation"/>
        </hasMember>
        <hasMember>
          <reference value="urn:uuid:1bc1badf-b083-455d-aa5a-7e5bc9c854d1"/>
          <type value="Observation"/>
        </hasMember>
      </Observation>
    </resource>
  </entry>
  <entry>
    <fullUrl value="urn:uuid:7eccd3f1-6460-42e0-8ea3-1558e95da042"/>
    <resource>
      <Observation>
        <id value="7eccd3f1-6460-42e0-8ea3-1558e95da042"/>
        <meta>
          <profile value="http://hl7.eu/fhir/laboratory/StructureDefinition/Observation-resultslab-eu-lab"/>
        </meta>
        <identifier>
          <system value="urn:oid:1.2.40.0.34.99.4613.122082.1.3.5"/>
          <value value="OBS-1-1"/>
        </identifier>
        <status value="final"/>
        <category>
          <coding>
            <system value="http://terminology.hl7.org/CodeSystem/observation-category"/>
            <code value="laboratory"/>
          </coding>
        </category>
        <code>
          <coding>
            <system value="http://loinc.org"/>
            <code value="26464-8"/>
          </coding>
        </code>
        <subject>
          <reference value="urn:uuid:718cc2e3-a4ee-41a1-a5f3-04307f76319f"/>
        </subject>
        <effectiveDateTime value="2021-06-01T06:35:00+02:00"/>
        <issued value="2021-06-01T13:01:00+02:00"/>
        <performer>
          <reference value="urn:uuid:44a3e5dc-ad19-44cf-868f-601f836b46eb"/>
          <type value="PractitionerRole"/>
        </performer>
        <valueQuantity>
          <value value="26"/>
          <system value="http://unitsofmeasure.org"/>
          <code value="10*9/L"/>
        </valueQuantity>
        <interpretation>
          <coding>
            <system value="http://terminology.hl7.org/CodeSystem/v3-ObservationInterpretation"/>
            <code value="H"/>
          </coding>
        </interpretation>
        <referenceRange>
          <low>
            <value value="4.0"/>
            <system value="http://unitsofmeasure.org"/>
            <code value="10*9/L"/>
          </low>
          <high>
            <value value="10.0"/>
            <system value="http://unitsofmeasure.org"/>
            <code value="10*9/L"/>
          </high>
          <type>
            <coding>
              <system value="http://terminology.hl7.org/CodeSystem/referencerange-meaning"/>
              <code value="normal"/>
            </coding>
          </type>
        </referenceRange>
      </Observation>
    </resource>
  </entry>
  <entry>
    <fullUrl value="urn:uuid:e7d5eb77-f90e-41e8-ab95-06c03076d1cd"/>
    <resource>
      <Observation>
        <id value="e7d5eb77-f90e-41e8-ab95-06c03076d1cd"/>
        <meta>
          <profile value="http://hl7.eu/fhir/laboratory/StructureDefinition/Observation-resultslab-eu-lab"/>
        </meta>
        <identifier>
          <system value="urn:oid:1.2.40.0.34.99.4613.122082.1.3.5"/>
          <value value="OBS-1-2"/>
        </identifier>
        <status value="final"/>
        <category>
          <coding>
            <system value="http://terminology.hl7.org/CodeSystem/observation-category"/>
            <code value="laboratory"/>
          </coding>
        </category>
        <code>
          <coding>
            <system value="http://loinc.org"/>
            <code value="26515-7"/>
          </coding>
        </code>
        <subject>
          <reference value="urn:uuid:718cc2e3-a4ee-41a1-a5f3-04307f76319f"/>
        </subject>
        <effectiveDateTime value="2021-06-01T06:35:00+02:00"/>
        <issued value="2021-06-01T13:01:00+02:00"/>
        <performer>
          <reference value="urn:uuid:44a3e5dc-ad19-44cf-868f-601f836b46eb"/>
          <type value="PractitionerRole"/>
        </performer>
        <valueQuantity>
          <value value="165"/>
          <system value="http://unitsofmeasure.org"/>
          <code value="10*9/L"/>
        </valueQuantity>
        <interpretation>
          <coding>
            <system value="http://terminology.hl7.org/CodeSystem/v3-ObservationInterpretation"/>
            <code value="N"/>
          </coding>
        </interpretation>
        <referenceRange>
          <low>
            <value value="150"/>
            <system value="http://unitsofmeasure.org"/>
            <code value="10*9/L"/>
          </low>
          <high>
            <value value="360"/>
            <system value="http://unitsofmeasure.org"/>
            <code value="10*9/L"/>
          </high>
          <type>
            <coding>
              <system value="http://terminology.hl7.org/CodeSystem/referencerange-meaning"/>
              <code value="normal"/>
            </coding>
          </type>
        </referenceRange>
      </Observation>
    </resource>
  </entry>
  <entry>
    <fullUrl value="urn:uuid:6fa26fce-5e02-4aa9-a744-1aa9404fc221"/>
    <resource>
      <Observation>
        <id value="6fa26fce-5e02-4aa9-a744-1aa9404fc221"/>
        <meta>
          <profile value="http://hl7.eu/fhir/laboratory/StructureDefinition/Observation-resultslab-eu-lab"/>
        </meta>
        <identifier>
          <system value="urn:oid:1.2.40.0.34.99.4613.122082.1.3.5"/>
          <value value="OBS-1-3"/>
        </identifier>
        <status value="final"/>
        <category>
          <coding>
            <system value="http://terminology.hl7.org/CodeSystem/observation-category"/>
            <code value="laboratory"/>
          </coding>
        </category>
        <code>
          <coding>
            <system value="http://loinc.org"/>
            <code value="26453-1"/>
          </coding>
        </code>
        <subject>
          <reference value="urn:uuid:718cc2e3-a4ee-41a1-a5f3-04307f76319f"/>
        </subject>
        <effectiveDateTime value="2021-06-01T06:35:00+02:00"/>
        <issued value="2021-06-01T13:01:00+02:00"/>
        <performer>
          <reference value="urn:uuid:44a3e5dc-ad19-44cf-868f-601f836b46eb"/>
          <type value="PractitionerRole"/>
        </performer>
        <valueQuantity>
          <value value="5.39"/>
          <system value="http://unitsofmeasure.org"/>
          <code value="10*12/L"/>
        </valueQuantity>
        <interpretation>
          <coding>
            <system value="http://terminology.hl7.org/CodeSystem/v3-ObservationInterpretation"/>
            <code value="N"/>
          </coding>
        </interpretation>
        <referenceRange>
          <low>
            <value value="4.6"/>
            <system value="http://unitsofmeasure.org"/>
            <code value="10*12/L"/>
          </low>
          <high>
            <value value="6.2"/>
            <system value="http://unitsofmeasure.org"/>
            <code value="10*12/L"/>
          </high>
          <type>
            <coding>
              <system value="http://terminology.hl7.org/CodeSystem/referencerange-meaning"/>
              <code value="normal"/>
            </coding>
          </type>
        </referenceRange>
      </Observation>
    </resource>
  </entry>
  <entry>
    <fullUrl value="urn:uuid:1466d0bd-1c99-4f99-b3c9-0164a234b9fc"/>
    <resource>
      <Observation>
        <id value="1466d0bd-1c99-4f99-b3c9-0164a234b9fc"/>
        <meta>
          <profile value="http://hl7.eu/fhir/laboratory/StructureDefinition/Observation-resultslab-eu-lab"/>
        </meta>
        <identifier>
          <system value="urn:oid:1.2.40.0.34.99.4613.122082.1.3.5"/>
          <value value="OBS-1-4"/>
        </identifier>
        <status value="final"/>
        <category>
          <coding>
            <system value="http://terminology.hl7.org/CodeSystem/observation-category"/>
            <code value="laboratory"/>
          </coding>
        </category>
        <code>
          <coding>
            <system value="http://loinc.org"/>
            <code value="718-7"/>
          </coding>
        </code>
        <subject>
          <reference value="urn:uuid:718cc2e3-a4ee-41a1-a5f3-04307f76319f"/>
        </subject>
        <effectiveDateTime value="2021-06-01T06:35:00+02:00"/>
        <issued value="2021-06-01T13:01:00+02:00"/>
        <performer>
          <reference value="urn:uuid:44a3e5dc-ad19-44cf-868f-601f836b46eb"/>
          <type value="PractitionerRole"/>
        </performer>
        <valueQuantity>
          <value value="16.0"/>
          <system value="http://unitsofmeasure.org"/>
          <code value="g/dL"/>
        </valueQuantity>
        <interpretation>
          <coding>
            <system value="http://terminology.hl7.org/CodeSystem/v3-ObservationInterpretation"/>
            <code value="N"/>
          </coding>
        </interpretation>
        <referenceRange>
          <low>
            <value value="14.0"/>
            <system value="http://unitsofmeasure.org"/>
            <code value="g/dL"/>
          </low>
          <high>
            <value value="18.0"/>
            <system value="http://unitsofmeasure.org"/>
            <code value="g/dL"/>
          </high>
          <type>
            <coding>
              <system value="http://terminology.hl7.org/CodeSystem/referencerange-meaning"/>
              <code value="normal"/>
            </coding>
          </type>
        </referenceRange>
      </Observation>
    </resource>
  </entry>
  <entry>
    <fullUrl value="urn:uuid:b5283ced-02cd-48df-9c0d-af74fed87522"/>
    <resource>
      <Observation>
        <id value="b5283ced-02cd-48df-9c0d-af74fed87522"/>
        <meta>
          <profile value="http://hl7.eu/fhir/laboratory/StructureDefinition/Observation-resultslab-eu-lab"/>
        </meta>
        <identifier>
          <system value="urn:oid:1.2.40.0.34.99.4613.122082.1.3.5"/>
          <value value="OBS-1-5"/>
        </identifier>
        <status value="final"/>
        <category>
          <coding>
            <system value="http://terminology.hl7.org/CodeSystem/observation-category"/>
            <code value="laboratory"/>
          </coding>
        </category>
        <code>
          <coding>
            <system value="http://loinc.org"/>
            <code value="20570-8"/>
          </coding>
        </code>
        <subject>
          <reference value="urn:uuid:718cc2e3-a4ee-41a1-a5f3-04307f76319f"/>
        </subject>
        <effectiveDateTime value="2021-06-01T06:35:00+02:00"/>
        <issued value="2021-06-01T13:01:00+02:00"/>
        <performer>
          <reference value="urn:uuid:44a3e5dc-ad19-44cf-868f-601f836b46eb"/>
          <type value="PractitionerRole"/>
        </performer>
        <valueQuantity>
          <value value="49.7"/>
          <system value="http://unitsofmeasure.org"/>
          <code value="%"/>
        </valueQuantity>
        <interpretation>
          <coding>
            <system value="http://terminology.hl7.org/CodeSystem/v3-ObservationInterpretation"/>
            <code value="H"/>
          </coding>
        </interpretation>
        <referenceRange>
          <low>
            <value value="43.0"/>
            <system value="http://unitsofmeasure.org"/>
            <code value="%"/>
          </low>
          <high>
            <value value="49.0"/>
            <system value="http://unitsofmeasure.org"/>
            <code value="%"/>
          </high>
          <type>
            <coding>
              <system value="http://terminology.hl7.org/CodeSystem/referencerange-meaning"/>
              <code value="normal"/>
            </coding>
          </type>
        </referenceRange>
      </Observation>
    </resource>
  </entry>
  <entry>
    <fullUrl value="urn:uuid:22d9dbdb-54a7-4b3e-8817-437a82159761"/>
    <resource>
      <Observation>
        <id value="22d9dbdb-54a7-4b3e-8817-437a82159761"/>
        <meta>
          <profile value="http://hl7.eu/fhir/laboratory/StructureDefinition/Observation-resultslab-eu-lab"/>
        </meta>
        <identifier>
          <system value="urn:oid:1.2.40.0.34.99.4613.122082.1.3.5"/>
          <value value="OBS-1-6"/>
        </identifier>
        <status value="final"/>
        <category>
          <coding>
            <system value="http://terminology.hl7.org/CodeSystem/observation-category"/>
            <code value="laboratory"/>
          </coding>
        </category>
        <code>
          <coding>
            <system value="http://loinc.org"/>
            <code value="28539-5"/>
          </coding>
        </code>
        <subject>
          <reference value="urn:uuid:718cc2e3-a4ee-41a1-a5f3-04307f76319f"/>
        </subject>
        <effectiveDateTime value="2021-06-01T13:01:00+02:00"/>
        <issued value="2021-06-01T13:01:00+02:00"/>
        <performer>
          <reference value="urn:uuid:44a3e5dc-ad19-44cf-868f-601f836b46eb"/>
          <type value="PractitionerRole"/>
        </performer>
        <valueQuantity>
          <value value="29.7"/>
          <system value="http://unitsofmeasure.org"/>
          <code value="pg"/>
        </valueQuantity>
        <interpretation>
          <coding>
            <system value="http://terminology.hl7.org/CodeSystem/v3-ObservationInterpretation"/>
            <code value="N"/>
          </coding>
        </interpretation>
        <referenceRange>
          <low>
            <value value="27.0"/>
            <system value="http://unitsofmeasure.org"/>
            <code value="pg"/>
          </low>
          <high>
            <value value="33.0"/>
            <system value="http://unitsofmeasure.org"/>
            <code value="pg"/>
          </high>
          <type>
            <coding>
              <system value="http://terminology.hl7.org/CodeSystem/referencerange-meaning"/>
              <code value="normal"/>
            </coding>
          </type>
        </referenceRange>
      </Observation>
    </resource>
  </entry>
  <entry>
    <fullUrl value="urn:uuid:9b6d2f64-aa97-4921-af0c-0c156967d429"/>
    <resource>
      <Observation>
        <id value="9b6d2f64-aa97-4921-af0c-0c156967d429"/>
        <meta>
          <profile value="http://hl7.eu/fhir/laboratory/StructureDefinition/Observation-resultslab-eu-lab"/>
        </meta>
        <identifier>
          <system value="urn:oid:1.2.40.0.34.99.4613.122082.1.3.5"/>
          <value value="OBS-1-7"/>
        </identifier>
        <status value="final"/>
        <category>
          <coding>
            <system value="http://terminology.hl7.org/CodeSystem/observation-category"/>
            <code value="laboratory"/>
          </coding>
        </category>
        <code>
          <coding>
            <system value="http://loinc.org"/>
            <code value="30428-7"/>
          </coding>
        </code>
        <subject>
          <reference value="urn:uuid:718cc2e3-a4ee-41a1-a5f3-04307f76319f"/>
        </subject>
        <effectiveDateTime value="2021-06-01T13:01:00+02:00"/>
        <issued value="2021-06-01T13:01:00+02:00"/>
        <performer>
          <reference value="urn:uuid:44a3e5dc-ad19-44cf-868f-601f836b46eb"/>
          <type value="PractitionerRole"/>
        </performer>
        <valueQuantity>
          <value value="92.2"/>
          <system value="http://unitsofmeasure.org"/>
          <code value="fL"/>
        </valueQuantity>
        <interpretation>
          <coding>
            <system value="http://terminology.hl7.org/CodeSystem/v3-ObservationInterpretation"/>
            <code value="N"/>
          </coding>
        </interpretation>
        <referenceRange>
          <low>
            <value value="85.0"/>
            <system value="http://unitsofmeasure.org"/>
            <code value="fL"/>
          </low>
          <high>
            <value value="95.0"/>
            <system value="http://unitsofmeasure.org"/>
            <code value="fL"/>
          </high>
          <type>
            <coding>
              <system value="http://terminology.hl7.org/CodeSystem/referencerange-meaning"/>
              <code value="normal"/>
            </coding>
          </type>
        </referenceRange>
      </Observation>
    </resource>
  </entry>
  <entry>
    <fullUrl value="urn:uuid:837f26f1-5d80-42e3-8081-e8b84a0858ac"/>
    <resource>
      <Observation>
        <id value="837f26f1-5d80-42e3-8081-e8b84a0858ac"/>
        <meta>
          <profile value="http://hl7.eu/fhir/laboratory/StructureDefinition/Observation-resultslab-eu-lab"/>
        </meta>
        <identifier>
          <system value="urn:oid:1.2.40.0.34.99.4613.122082.1.3.5"/>
          <value value="OBS-1-8"/>
        </identifier>
        <status value="final"/>
        <category>
          <coding>
            <system value="http://terminology.hl7.org/CodeSystem/observation-category"/>
            <code value="laboratory"/>
          </coding>
        </category>
        <code>
          <coding>
            <system value="http://loinc.org"/>
            <code value="28540-3"/>
          </coding>
        </code>
        <subject>
          <reference value="urn:uuid:718cc2e3-a4ee-41a1-a5f3-04307f76319f"/>
        </subject>
        <effectiveDateTime value="2021-06-01T13:01:00+02:00"/>
        <issued value="2021-06-01T13:01:00+02:00"/>
        <performer>
          <reference value="urn:uuid:44a3e5dc-ad19-44cf-868f-601f836b46eb"/>
          <type value="PractitionerRole"/>
        </performer>
        <valueQuantity>
          <value value="32.2"/>
          <system value="http://unitsofmeasure.org"/>
          <code value="g/dL"/>
        </valueQuantity>
        <interpretation>
          <coding>
            <system value="http://terminology.hl7.org/CodeSystem/v3-ObservationInterpretation"/>
            <code value="N"/>
          </coding>
        </interpretation>
        <referenceRange>
          <low>
            <value value="28.0"/>
            <system value="http://unitsofmeasure.org"/>
            <code value="g/dL"/>
          </low>
          <high>
            <value value="33.0"/>
            <system value="http://unitsofmeasure.org"/>
            <code value="g/dL"/>
          </high>
          <type>
            <coding>
              <system value="http://terminology.hl7.org/CodeSystem/referencerange-meaning"/>
              <code value="normal"/>
            </coding>
          </type>
        </referenceRange>
      </Observation>
    </resource>
  </entry>
  <entry>
    <fullUrl value="urn:uuid:1bc1badf-b083-455d-aa5a-7e5bc9c854d1"/>
    <resource>
      <Observation>
        <id value="1bc1badf-b083-455d-aa5a-7e5bc9c854d1"/>
        <meta>
          <profile value="http://hl7.eu/fhir/laboratory/StructureDefinition/Observation-resultslab-eu-lab"/>
        </meta>
        <identifier>
          <system value="urn:oid:1.2.40.0.34.99.4613.122082.1.3.5"/>
          <value value="OBS-1-12"/>
        </identifier>
        <status value="final"/>
        <category>
          <coding>
            <system value="http://terminology.hl7.org/CodeSystem/observation-category"/>
            <code value="laboratory"/>
          </coding>
        </category>
        <code>
          <coding>
            <system value="https://termgit.elga.gv.at/CodeSystem/elga-laborparameterergaenzung"/>
            <code value="V00042"/>
          </coding>
        </code>
        <subject>
          <reference value="urn:uuid:718cc2e3-a4ee-41a1-a5f3-04307f76319f"/>
        </subject>
        <effectiveDateTime value="2021-06-01T13:01:00+02:00"/>
        <issued value="2021-06-01T13:01:00+02:00"/>
        <performer>
          <reference value="urn:uuid:44a3e5dc-ad19-44cf-868f-601f836b46eb"/>
          <type value="PractitionerRole"/>
        </performer>
        <valueQuantity>
          <value value="7"/>
          <system value="http://unitsofmeasure.org"/>
          <code value="%"/>
        </valueQuantity>
        <interpretation>
          <coding>
            <system value="http://terminology.hl7.org/CodeSystem/v3-ObservationInterpretation"/>
            <code value="N"/>
          </coding>
        </interpretation>
        <referenceRange>
          <low>
            <value value="0"/>
            <system value="http://unitsofmeasure.org"/>
            <code value="%"/>
          </low>
          <high>
            <value value="10"/>
            <system value="http://unitsofmeasure.org"/>
            <code value="%"/>
          </high>
          <type>
            <coding>
              <system value="http://terminology.hl7.org/CodeSystem/referencerange-meaning"/>
              <code value="normal"/>
            </coding>
          </type>
        </referenceRange>
      </Observation>
    </resource>
  </entry>
  <entry>
    <fullUrl value="urn:uuid:f6766ae9-2798-411a-ad65-752b0a8713d4"/>
    <resource>
      <Observation>
        <id value="f6766ae9-2798-411a-ad65-752b0a8713d4"/>
        <meta>
          <profile value="http://hl7.eu/fhir/laboratory/StructureDefinition/Observation-resultslab-eu-lab"/>
        </meta>
        <status value="final"/>
        <category>
          <coding>
            <system value="http://terminology.hl7.org/CodeSystem/observation-category"/>
            <code value="laboratory"/>
          </coding>
        </category>
        <category>
          <coding>
            <system value="https://termgit.elga.gv.at/CodeSystem/elga-laborparameterergaenzung"/>
            <code value="03020"/>
          </coding>
        </category>
        <code>
          <coding>
            <system value="https://termgit.elga.gv.at/CodeSystem/elga-laborparameterergaenzung"/>
            <code value="03020"/>
          </coding>
        </code>
        <subject>
          <reference value="urn:uuid:718cc2e3-a4ee-41a1-a5f3-04307f76319f"/>
        </subject>
        <effectiveDateTime value="1900-01-01">
          <extension url="http://hl7.org/fhir/StructureDefinition/data-absent-reason">
            <valueCode value="not-applicable"/>
          </extension>
        </effectiveDateTime>
        <issued value="2021-06-01T13:01:00+02:00"/>
        <performer>
          <reference value="urn:uuid:44a3e5dc-ad19-44cf-868f-601f836b46eb"/>
          <type value="PractitionerRole"/>
        </performer>
        <hasMember>
          <reference value="urn:uuid:dc9981c9-6dc8-4097-a617-f0b12611a19a"/>
          <type value="Observation"/>
        </hasMember>
        <hasMember>
          <reference value="urn:uuid:552c02aa-f7a9-4835-b718-405ea9a1f651"/>
          <type value="Observation"/>
        </hasMember>
        <hasMember>
          <reference value="urn:uuid:bdd331a7-2372-4786-bacb-d4c56cee470d"/>
          <type value="Observation"/>
        </hasMember>
      </Observation>
    </resource>
  </entry>
  <entry>
    <fullUrl value="urn:uuid:dc9981c9-6dc8-4097-a617-f0b12611a19a"/>
    <resource>
      <Observation>
        <id value="dc9981c9-6dc8-4097-a617-f0b12611a19a"/>
        <meta>
          <profile value="http://hl7.eu/fhir/laboratory/StructureDefinition/Observation-resultslab-eu-lab"/>
        </meta>
        <identifier>
          <system value="urn:oid:1.2.40.0.34.99.4613.122082.1.3.5"/>
          <value value="OBS-1-9"/>
        </identifier>
        <status value="final"/>
        <category>
          <coding>
            <system value="http://terminology.hl7.org/CodeSystem/observation-category"/>
            <code value="laboratory"/>
          </coding>
        </category>
        <code>
          <coding>
            <system value="http://loinc.org"/>
            <code value="11108-8"/>
          </coding>
        </code>
        <subject>
          <reference value="urn:uuid:718cc2e3-a4ee-41a1-a5f3-04307f76319f"/>
        </subject>
        <effectiveDateTime value="2021-06-01T13:01:00+02:00"/>
        <issued value="2021-06-01T13:01:00+02:00"/>
        <performer>
          <reference value="urn:uuid:44a3e5dc-ad19-44cf-868f-601f836b46eb"/>
          <type value="PractitionerRole"/>
        </performer>
        <valueQuantity>
          <value value="0.5"/>
          <system value="http://unitsofmeasure.org"/>
          <code value="%"/>
        </valueQuantity>
        <interpretation>
          <coding>
            <system value="http://terminology.hl7.org/CodeSystem/v3-ObservationInterpretation"/>
            <code value="N"/>
          </coding>
        </interpretation>
        <referenceRange>
          <low>
            <value value="0.0"/>
            <system value="http://unitsofmeasure.org"/>
            <code value="%"/>
          </low>
          <high>
            <value value="15.0"/>
            <system value="http://unitsofmeasure.org"/>
            <code value="%"/>
          </high>
          <type>
            <coding>
              <system value="http://terminology.hl7.org/CodeSystem/referencerange-meaning"/>
              <code value="normal"/>
            </coding>
          </type>
        </referenceRange>
      </Observation>
    </resource>
  </entry>
  <entry>
    <fullUrl value="urn:uuid:552c02aa-f7a9-4835-b718-405ea9a1f651"/>
    <resource>
      <Observation>
        <id value="552c02aa-f7a9-4835-b718-405ea9a1f651"/>
        <meta>
          <profile value="http://hl7.eu/fhir/laboratory/StructureDefinition/Observation-resultslab-eu-lab"/>
        </meta>
        <identifier>
          <system value="urn:oid:1.2.40.0.34.99.4613.122082.1.3.5"/>
          <value value="OBS-1-10"/>
        </identifier>
        <status value="final"/>
        <category>
          <coding>
            <system value="http://terminology.hl7.org/CodeSystem/observation-category"/>
            <code value="laboratory"/>
          </coding>
        </category>
        <code>
          <coding>
            <system value="http://loinc.org"/>
            <code value="11150-0"/>
          </coding>
        </code>
        <subject>
          <reference value="urn:uuid:718cc2e3-a4ee-41a1-a5f3-04307f76319f"/>
        </subject>
        <effectiveDateTime value="2021-06-01T13:01:00+02:00"/>
        <issued value="2021-06-01T13:01:00+02:00"/>
        <performer>
          <reference value="urn:uuid:44a3e5dc-ad19-44cf-868f-601f836b46eb"/>
          <type value="PractitionerRole"/>
        </performer>
        <valueQuantity>
          <value value="92.5"/>
          <system value="http://unitsofmeasure.org"/>
          <code value="%"/>
        </valueQuantity>
        <interpretation>
          <coding>
            <system value="http://terminology.hl7.org/CodeSystem/v3-ObservationInterpretation"/>
            <code value="H"/>
          </coding>
        </interpretation>
        <referenceRange>
          <low>
            <value value="0.0"/>
            <system value="http://unitsofmeasure.org"/>
            <code value="%"/>
          </low>
          <high>
            <value value="5.0"/>
            <system value="http://unitsofmeasure.org"/>
            <code value="%"/>
          </high>
          <type>
            <coding>
              <system value="http://terminology.hl7.org/CodeSystem/referencerange-meaning"/>
              <code value="normal"/>
            </coding>
          </type>
        </referenceRange>
      </Observation>
    </resource>
  </entry>
  <entry>
    <fullUrl value="urn:uuid:bdd331a7-2372-4786-bacb-d4c56cee470d"/>
    <resource>
      <Observation>
        <id value="bdd331a7-2372-4786-bacb-d4c56cee470d"/>
        <meta>
          <profile value="http://hl7.eu/fhir/laboratory/StructureDefinition/Observation-resultslab-eu-lab"/>
        </meta>
        <identifier>
          <system value="urn:oid:1.2.40.0.34.99.4613.122082.1.3.5"/>
          <value value="OBS-1-11"/>
        </identifier>
        <status value="final"/>
        <category>
          <coding>
            <system value="http://terminology.hl7.org/CodeSystem/observation-category"/>
            <code value="laboratory"/>
          </coding>
        </category>
        <code>
          <coding>
            <code value="11152-6"/>
          </coding>
          <text value="Eosinophile pro 100 Zellen /KM"/>
        </code>
        <subject>
          <reference value="urn:uuid:718cc2e3-a4ee-41a1-a5f3-04307f76319f"/>
        </subject>
        <effectiveDateTime value="2021-06-01T13:01:00+02:00"/>
        <issued value="2021-06-01T13:01:00+02:00"/>
        <performer>
          <reference value="urn:uuid:44a3e5dc-ad19-44cf-868f-601f836b46eb"/>
          <type value="PractitionerRole"/>
        </performer>
        <valueQuantity>
          <value value="4"/>
          <system value="http://unitsofmeasure.org"/>
          <code value="%"/>
        </valueQuantity>
        <interpretation>
          <coding>
            <system value="http://terminology.hl7.org/CodeSystem/v3-ObservationInterpretation"/>
            <code value="N"/>
          </coding>
        </interpretation>
        <referenceRange>
          <low>
            <value value="0.0"/>
            <system value="http://unitsofmeasure.org"/>
            <code value="%"/>
          </low>
          <high>
            <value value="7.0"/>
            <system value="http://unitsofmeasure.org"/>
            <code value="%"/>
          </high>
          <type>
            <coding>
              <system value="http://terminology.hl7.org/CodeSystem/referencerange-meaning"/>
              <code value="normal"/>
            </coding>
          </type>
        </referenceRange>
      </Observation>
    </resource>
  </entry>
  <entry>
    <fullUrl value="urn:uuid:c78c7da0-4a06-4940-9348-b3ac3e6a3994"/>
    <resource>
      <Observation>
        <id value="c78c7da0-4a06-4940-9348-b3ac3e6a3994"/>
        <meta>
          <profile value="http://hl7.eu/fhir/laboratory/StructureDefinition/Observation-resultslab-eu-lab"/>
        </meta>
        <status value="final"/>
        <category>
          <coding>
            <system value="http://terminology.hl7.org/CodeSystem/observation-category"/>
            <code value="laboratory"/>
          </coding>
        </category>
        <category>
          <coding>
            <system value="https://termgit.elga.gv.at/CodeSystem/elga-laborparameterergaenzung"/>
            <code value="04140"/>
          </coding>
        </category>
        <code>
          <coding>
            <system value="https://termgit.elga.gv.at/CodeSystem/elga-laborparameterergaenzung"/>
            <code value="04140"/>
          </coding>
        </code>
        <subject>
          <reference value="urn:uuid:718cc2e3-a4ee-41a1-a5f3-04307f76319f"/>
        </subject>
        <effectiveDateTime value="1900-01-01">
          <extension url="http://hl7.org/fhir/StructureDefinition/data-absent-reason">
            <valueCode value="not-applicable"/>
          </extension>
        </effectiveDateTime>
        <issued value="2021-06-01T13:01:00+02:00"/>
        <performer>
          <reference value="urn:uuid:44a3e5dc-ad19-44cf-868f-601f836b46eb"/>
          <type value="PractitionerRole"/>
        </performer>
        <hasMember>
          <reference value="urn:uuid:2a961373-278a-4ed9-8dab-e2e07c9e3f29"/>
          <type value="Observation"/>
        </hasMember>
        <hasMember>
          <reference value="urn:uuid:fc509bc2-d9fa-4579-938f-a897d87bc96f"/>
          <type value="Observation"/>
        </hasMember>
        <hasMember>
          <reference value="urn:uuid:c586a3c1-d348-4f68-a8c7-f6b9b362cbaa"/>
          <type value="Observation"/>
        </hasMember>
        <hasMember>
          <reference value="urn:uuid:80c1f6ab-d89d-46ec-a637-04b79cab0d09"/>
          <type value="Observation"/>
        </hasMember>
        <hasMember>
          <reference value="urn:uuid:aaeebe2a-e8ec-455d-b3df-a5c6d0915750"/>
          <type value="Observation"/>
        </hasMember>
      </Observation>
    </resource>
  </entry>
  <entry>
    <fullUrl value="urn:uuid:2a961373-278a-4ed9-8dab-e2e07c9e3f29"/>
    <resource>
      <Observation>
        <id value="2a961373-278a-4ed9-8dab-e2e07c9e3f29"/>
        <meta>
          <profile value="http://hl7.eu/fhir/laboratory/StructureDefinition/Observation-resultslab-eu-lab"/>
        </meta>
        <identifier>
          <system value="urn:oid:1.2.40.0.34.99.4613.122082.1.3.5"/>
          <value value="OBS-2-1"/>
        </identifier>
        <status value="final"/>
        <category>
          <coding>
            <system value="http://terminology.hl7.org/CodeSystem/observation-category"/>
            <code value="laboratory"/>
          </coding>
        </category>
        <code>
          <coding>
            <system value="http://loinc.org"/>
            <code value="5894-1"/>
          </coding>
        </code>
        <subject>
          <reference value="urn:uuid:718cc2e3-a4ee-41a1-a5f3-04307f76319f"/>
        </subject>
        <effectiveDateTime value="2021-06-01T13:01:00+02:00"/>
        <issued value="2021-06-01T13:01:00+02:00"/>
        <performer>
          <reference value="urn:uuid:44a3e5dc-ad19-44cf-868f-601f836b46eb"/>
          <type value="PractitionerRole"/>
        </performer>
        <valueQuantity>
          <value value="116"/>
          <system value="http://unitsofmeasure.org"/>
          <code value="%"/>
        </valueQuantity>
        <interpretation>
          <coding>
            <system value="http://terminology.hl7.org/CodeSystem/v3-ObservationInterpretation"/>
            <code value="N"/>
          </coding>
        </interpretation>
        <referenceRange>
          <low>
            <value value="70"/>
            <system value="http://unitsofmeasure.org"/>
            <code value="%"/>
          </low>
          <high>
            <value value="130"/>
            <system value="http://unitsofmeasure.org"/>
            <code value="%"/>
          </high>
          <type>
            <coding>
              <system value="http://terminology.hl7.org/CodeSystem/referencerange-meaning"/>
              <code value="normal"/>
            </coding>
          </type>
        </referenceRange>
      </Observation>
    </resource>
  </entry>
  <entry>
    <fullUrl value="urn:uuid:fc509bc2-d9fa-4579-938f-a897d87bc96f"/>
    <resource>
      <Observation>
        <id value="fc509bc2-d9fa-4579-938f-a897d87bc96f"/>
        <meta>
          <profile value="http://hl7.eu/fhir/laboratory/StructureDefinition/Observation-resultslab-eu-lab"/>
        </meta>
        <identifier>
          <system value="urn:oid:1.2.40.0.34.99.4613.122082.1.3.5"/>
          <value value="OBS-2-2"/>
        </identifier>
        <status value="final"/>
        <category>
          <coding>
            <system value="http://terminology.hl7.org/CodeSystem/observation-category"/>
            <code value="laboratory"/>
          </coding>
        </category>
        <code>
          <coding>
            <system value="http://loinc.org"/>
            <code value="6301-6"/>
          </coding>
        </code>
        <subject>
          <reference value="urn:uuid:718cc2e3-a4ee-41a1-a5f3-04307f76319f"/>
        </subject>
        <effectiveDateTime value="2021-06-01T13:01:00+02:00"/>
        <issued value="2021-06-01T13:01:00+02:00"/>
        <performer>
          <reference value="urn:uuid:44a3e5dc-ad19-44cf-868f-601f836b46eb"/>
          <type value="PractitionerRole"/>
        </performer>
        <valueQuantity>
          <value value="1.1"/>
          <system value="http://unitsofmeasure.org"/>
          <code value="1"/>
        </valueQuantity>
        <interpretation>
          <coding>
            <system value="http://terminology.hl7.org/CodeSystem/v3-ObservationInterpretation"/>
            <code value="L"/>
          </coding>
        </interpretation>
        <referenceRange>
          <low>
            <value value="2.0"/>
            <system value="http://unitsofmeasure.org"/>
            <code value="1"/>
          </low>
          <high>
            <value value="3.5"/>
            <system value="http://unitsofmeasure.org"/>
            <code value="1"/>
          </high>
          <type>
            <coding>
              <system value="http://terminology.hl7.org/CodeSystem/referencerange-meaning"/>
              <code value="normal"/>
            </coding>
          </type>
        </referenceRange>
      </Observation>
    </resource>
  </entry>
  <entry>
    <fullUrl value="urn:uuid:c586a3c1-d348-4f68-a8c7-f6b9b362cbaa"/>
    <resource>
      <Observation>
        <id value="c586a3c1-d348-4f68-a8c7-f6b9b362cbaa"/>
        <meta>
          <profile value="http://hl7.eu/fhir/laboratory/StructureDefinition/Observation-resultslab-eu-lab"/>
        </meta>
        <identifier>
          <system value="urn:oid:1.2.40.0.34.99.4613.122082.1.3.5"/>
          <value value="OBS-2-3"/>
        </identifier>
        <status value="final"/>
        <category>
          <coding>
            <system value="http://terminology.hl7.org/CodeSystem/observation-category"/>
            <code value="laboratory"/>
          </coding>
        </category>
        <code>
          <coding>
            <system value="http://loinc.org"/>
            <code value="14979-9"/>
          </coding>
        </code>
        <subject>
          <reference value="urn:uuid:718cc2e3-a4ee-41a1-a5f3-04307f76319f"/>
        </subject>
        <effectiveDateTime value="2021-06-01T13:01:00+02:00"/>
        <issued value="2021-06-01T13:01:00+02:00"/>
        <performer>
          <reference value="urn:uuid:44a3e5dc-ad19-44cf-868f-601f836b46eb"/>
          <type value="PractitionerRole"/>
        </performer>
        <valueQuantity>
          <value value="29.3"/>
          <system value="http://unitsofmeasure.org"/>
          <code value="s"/>
        </valueQuantity>
        <interpretation>
          <coding>
            <system value="http://terminology.hl7.org/CodeSystem/v3-ObservationInterpretation"/>
            <code value="N"/>
          </coding>
        </interpretation>
        <referenceRange>
          <low>
            <value value="23.0"/>
            <system value="http://unitsofmeasure.org"/>
            <code value="s"/>
          </low>
          <high>
            <value value="37.0"/>
            <system value="http://unitsofmeasure.org"/>
            <code value="s"/>
          </high>
          <type>
            <coding>
              <system value="http://terminology.hl7.org/CodeSystem/referencerange-meaning"/>
              <code value="normal"/>
            </coding>
          </type>
        </referenceRange>
      </Observation>
    </resource>
  </entry>
  <entry>
    <fullUrl value="urn:uuid:80c1f6ab-d89d-46ec-a637-04b79cab0d09"/>
    <resource>
      <Observation>
        <id value="80c1f6ab-d89d-46ec-a637-04b79cab0d09"/>
        <meta>
          <profile value="http://hl7.eu/fhir/laboratory/StructureDefinition/Observation-resultslab-eu-lab"/>
        </meta>
        <identifier>
          <system value="urn:oid:1.2.40.0.34.99.4613.122082.1.3.5"/>
          <value value="OBS-2-4"/>
        </identifier>
        <status value="final"/>
        <category>
          <coding>
            <system value="http://terminology.hl7.org/CodeSystem/observation-category"/>
            <code value="laboratory"/>
          </coding>
        </category>
        <code>
          <coding>
            <system value="http://loinc.org"/>
            <code value="27811-9"/>
          </coding>
        </code>
        <subject>
          <reference value="urn:uuid:718cc2e3-a4ee-41a1-a5f3-04307f76319f"/>
        </subject>
        <effectiveDateTime value="2021-06-01T13:01:00+02:00"/>
        <issued value="2021-06-01T13:01:00+02:00"/>
        <performer>
          <reference value="urn:uuid:44a3e5dc-ad19-44cf-868f-601f836b46eb"/>
          <type value="PractitionerRole"/>
        </performer>
        <valueQuantity>
          <value value="101"/>
          <system value="http://unitsofmeasure.org"/>
          <code value="%"/>
        </valueQuantity>
        <interpretation>
          <coding>
            <system value="http://terminology.hl7.org/CodeSystem/v3-ObservationInterpretation"/>
            <code value="N"/>
          </coding>
        </interpretation>
        <referenceRange>
          <low>
            <value value="80"/>
            <system value="http://unitsofmeasure.org"/>
            <code value="%"/>
          </low>
          <high>
            <value value="135"/>
            <system value="http://unitsofmeasure.org"/>
            <code value="%"/>
          </high>
          <type>
            <coding>
              <system value="http://terminology.hl7.org/CodeSystem/referencerange-meaning"/>
              <code value="normal"/>
            </coding>
          </type>
        </referenceRange>
      </Observation>
    </resource>
  </entry>
  <entry>
    <fullUrl value="urn:uuid:aaeebe2a-e8ec-455d-b3df-a5c6d0915750"/>
    <resource>
      <Observation>
        <id value="aaeebe2a-e8ec-455d-b3df-a5c6d0915750"/>
        <meta>
          <profile value="http://hl7.eu/fhir/laboratory/StructureDefinition/Observation-resultslab-eu-lab"/>
        </meta>
        <identifier>
          <system value="urn:oid:1.2.40.0.34.99.4613.122082.1.3.5"/>
          <value value="OBS-2-5"/>
        </identifier>
        <status value="final"/>
        <category>
          <coding>
            <system value="http://terminology.hl7.org/CodeSystem/observation-category"/>
            <code value="laboratory"/>
          </coding>
        </category>
        <code>
          <coding>
            <system value="http://loinc.org"/>
            <code value="30240-6"/>
          </coding>
        </code>
        <subject>
          <reference value="urn:uuid:718cc2e3-a4ee-41a1-a5f3-04307f76319f"/>
        </subject>
        <effectiveDateTime value="2021-06-01T13:01:00+02:00"/>
        <issued value="2021-06-01T13:01:00+02:00"/>
        <performer>
          <reference value="urn:uuid:44a3e5dc-ad19-44cf-868f-601f836b46eb"/>
          <type value="PractitionerRole"/>
        </performer>
        <valueQuantity>
          <value value="0.30"/>
          <system value="http://unitsofmeasure.org"/>
          <code value="mg/L"/>
        </valueQuantity>
        <interpretation>
          <coding>
            <system value="http://terminology.hl7.org/CodeSystem/v3-ObservationInterpretation"/>
            <code value="N"/>
          </coding>
        </interpretation>
        <referenceRange>
          <low>
            <system value="http://unitsofmeasure.org"/>
          </low>
          <high>
            <value value="0.50"/>
            <system value="http://unitsofmeasure.org"/>
            <code value="mg/L"/>
          </high>
          <type>
            <coding>
              <system value="http://terminology.hl7.org/CodeSystem/referencerange-meaning"/>
              <code value="normal"/>
            </coding>
          </type>
        </referenceRange>
      </Observation>
    </resource>
  </entry>
  <entry>
    <fullUrl value="urn:uuid:77cdc8c3-f323-4c4c-a9cb-865e604782e0"/>
    <resource>
      <Observation>
        <id value="77cdc8c3-f323-4c4c-a9cb-865e604782e0"/>
        <meta>
          <profile value="http://hl7.eu/fhir/laboratory/StructureDefinition/Observation-resultslab-eu-lab"/>
        </meta>
        <status value="final"/>
        <category>
          <coding>
            <system value="http://terminology.hl7.org/CodeSystem/observation-category"/>
            <code value="laboratory"/>
          </coding>
        </category>
        <category>
          <coding>
            <system value="https://termgit.elga.gv.at/CodeSystem/elga-laborparameterergaenzung"/>
            <code value="04150"/>
          </coding>
        </category>
        <code>
          <coding>
            <system value="https://termgit.elga.gv.at/CodeSystem/elga-laborparameterergaenzung"/>
            <code value="04150"/>
          </coding>
        </code>
        <subject>
          <reference value="urn:uuid:718cc2e3-a4ee-41a1-a5f3-04307f76319f"/>
        </subject>
        <effectiveDateTime value="1900-01-01">
          <extension url="http://hl7.org/fhir/StructureDefinition/data-absent-reason">
            <valueCode value="not-applicable"/>
          </extension>
        </effectiveDateTime>
        <issued value="2021-06-01T13:01:00+02:00"/>
        <performer>
          <reference value="urn:uuid:44a3e5dc-ad19-44cf-868f-601f836b46eb"/>
          <type value="PractitionerRole"/>
        </performer>
        <hasMember>
          <reference value="urn:uuid:9d461bdd-6500-4942-8732-251ee19df0c8"/>
          <type value="Observation"/>
        </hasMember>
        <hasMember>
          <reference value="urn:uuid:de47a19e-68ef-4342-9672-acdf6d6d1693"/>
          <type value="Observation"/>
        </hasMember>
      </Observation>
    </resource>
  </entry>
  <entry>
    <fullUrl value="urn:uuid:9d461bdd-6500-4942-8732-251ee19df0c8"/>
    <resource>
      <Observation>
        <id value="9d461bdd-6500-4942-8732-251ee19df0c8"/>
        <meta>
          <profile value="http://hl7.eu/fhir/laboratory/StructureDefinition/Observation-resultslab-eu-lab"/>
        </meta>
        <identifier>
          <system value="urn:oid:1.2.40.0.34.99.4613.122082.1.3.5"/>
          <value value="OBS-2-6"/>
        </identifier>
        <status value="final"/>
        <category>
          <coding>
            <system value="http://terminology.hl7.org/CodeSystem/observation-category"/>
            <code value="laboratory"/>
          </coding>
        </category>
        <code>
          <coding>
            <system value="http://loinc.org"/>
            <code value="3198-9"/>
          </coding>
        </code>
        <subject>
          <reference value="urn:uuid:718cc2e3-a4ee-41a1-a5f3-04307f76319f"/>
        </subject>
        <effectiveDateTime value="2021-06-01T13:01:00+02:00"/>
        <issued value="2021-06-01T13:01:00+02:00"/>
        <performer>
          <reference value="urn:uuid:73a06212-a05c-46e2-bf07-380ddf8e6cf9"/>
          <type value="PractitionerRole"/>
        </performer>
        <valueQuantity>
          <value value="104"/>
          <system value="http://unitsofmeasure.org"/>
          <code value="%"/>
        </valueQuantity>
        <interpretation>
          <coding>
            <system value="http://terminology.hl7.org/CodeSystem/v3-ObservationInterpretation"/>
            <code value="N"/>
          </coding>
        </interpretation>
        <referenceRange>
          <low>
            <value value="75"/>
            <system value="http://unitsofmeasure.org"/>
            <code value="%"/>
          </low>
          <high>
            <value value="160"/>
            <system value="http://unitsofmeasure.org"/>
            <code value="%"/>
          </high>
          <type>
            <coding>
              <system value="http://terminology.hl7.org/CodeSystem/referencerange-meaning"/>
              <code value="normal"/>
            </coding>
          </type>
        </referenceRange>
      </Observation>
    </resource>
  </entry>
  <entry>
    <fullUrl value="urn:uuid:73a06212-a05c-46e2-bf07-380ddf8e6cf9"/>
    <resource>
      <PractitionerRole>
        <id value="73a06212-a05c-46e2-bf07-380ddf8e6cf9"/>
        <identifier>
          <system value="urn:oid:1.2.40.0.34.99.111.0.2"/>
          <value value="55146"/>
        </identifier>
        <practitioner>
          <reference value="urn:uuid:38a93355-dd08-4371-9b3c-0fe2897d6f4b"/>
          <type value="Practitioner"/>
        </practitioner>
        <organization>
          <reference value="urn:uuid:fcee15fb-e6ac-4218-ad4a-b9470e555503"/>
          <type value="Organization"/>
        </organization>
        <code>
          <coding>
            <system value="urn:oid:2.16.840.1.113883.2.16.1.4.9"/>
            <code value="E"/>
          </coding>
        </code>
      </PractitionerRole>
    </resource>
  </entry>
  <entry>
    <fullUrl value="urn:uuid:38a93355-dd08-4371-9b3c-0fe2897d6f4b"/>
    <resource>
      <Practitioner>
        <id value="38a93355-dd08-4371-9b3c-0fe2897d6f4b"/>
        <name>
          <family value="Laborleiter"/>
          <given value="Larissa"/>
          <prefix value="Dr.">
            <extension url="http://hl7.org/fhir/StructureDefinition/iso21090-EN-qualifier">
              <valueCode value="AC"/>
            </extension>
          </prefix>
        </name>
        <telecom>
          <system value="phone"/>
          <value value="+43.1.12345678"/>
          <use value="work"/>
        </telecom>
        <address>
          <line value="Laborplatz 1"/>
          <city value="Wien"/>
          <postalCode value="1210"/>
          <country value="AUT"/>
        </address>
      </Practitioner>
    </resource>
  </entry>
  <entry>
    <fullUrl value="urn:uuid:fcee15fb-e6ac-4218-ad4a-b9470e555503"/>
    <resource>
      <Organization>
        <id value="fcee15fb-e6ac-4218-ad4a-b9470e555503"/>
        <identifier>
          <system value="urn:ietf:rfc:3986"/>
          <value value="urn:oid:1.2.40.0.34.99.111"/>
          <assigner>
            <display value="GDA Index"/>
          </assigner>
        </identifier>
        <name value="Zentrallabor"/>
        <telecom>
          <system value="phone"/>
          <value value="+43.1.12345678"/>
          <use value="work"/>
        </telecom>
        <address>
          <line value="Laborpatz 1"/>
          <city value="Wien"/>
          <postalCode value="1210"/>
          <country value="AUT"/>
        </address>
      </Organization>
    </resource>
  </entry>
  <entry>
    <fullUrl value="urn:uuid:de47a19e-68ef-4342-9672-acdf6d6d1693"/>
    <resource>
      <Observation>
        <id value="de47a19e-68ef-4342-9672-acdf6d6d1693"/>
        <meta>
          <profile value="http://hl7.eu/fhir/laboratory/StructureDefinition/Observation-resultslab-eu-lab"/>
        </meta>
        <identifier>
          <system value="urn:oid:1.2.40.0.34.99.4613.122082.1.3.5"/>
          <value value="OBS-2-7"/>
        </identifier>
        <status value="final"/>
        <category>
          <coding>
            <system value="http://terminology.hl7.org/CodeSystem/observation-category"/>
            <code value="laboratory"/>
          </coding>
        </category>
        <code>
          <coding>
            <system value="http://loinc.org"/>
            <code value="3209-4"/>
          </coding>
        </code>
        <subject>
          <reference value="urn:uuid:718cc2e3-a4ee-41a1-a5f3-04307f76319f"/>
        </subject>
        <effectiveDateTime value="2021-06-01T13:01:00+02:00"/>
        <issued value="2021-06-01T13:01:00+02:00"/>
        <performer>
          <reference value="urn:uuid:45941abf-a95f-46a2-a0af-a1a7b8c9eb86"/>
          <type value="PractitionerRole"/>
        </performer>
        <valueQuantity>
          <value value="112"/>
          <system value="http://unitsofmeasure.org"/>
          <code value="%"/>
        </valueQuantity>
        <interpretation>
          <coding>
            <system value="http://terminology.hl7.org/CodeSystem/v3-ObservationInterpretation"/>
            <code value="N"/>
          </coding>
        </interpretation>
        <referenceRange>
          <low>
            <value value="60"/>
            <system value="http://unitsofmeasure.org"/>
            <code value="%"/>
          </low>
          <high>
            <value value="160"/>
            <system value="http://unitsofmeasure.org"/>
            <code value="%"/>
          </high>
          <type>
            <coding>
              <system value="http://terminology.hl7.org/CodeSystem/referencerange-meaning"/>
              <code value="normal"/>
            </coding>
          </type>
        </referenceRange>
      </Observation>
    </resource>
  </entry>
  <entry>
    <fullUrl value="urn:uuid:45941abf-a95f-46a2-a0af-a1a7b8c9eb86"/>
    <resource>
      <PractitionerRole>
        <id value="45941abf-a95f-46a2-a0af-a1a7b8c9eb86"/>
        <identifier>
          <system value="urn:oid:1.2.40.0.34.99.111.0.2"/>
          <value value="55146"/>
        </identifier>
        <practitioner>
          <reference value="urn:uuid:ef49d32f-ae40-4ae6-931f-0afb9ce34e16"/>
          <type value="Practitioner"/>
        </practitioner>
        <organization>
          <reference value="urn:uuid:e57a1955-7978-40dd-b3fd-71f4a8f025a4"/>
          <type value="Organization"/>
        </organization>
        <code>
          <coding>
            <system value="urn:oid:2.16.840.1.113883.2.16.1.4.9"/>
            <code value="E"/>
          </coding>
        </code>
      </PractitionerRole>
    </resource>
  </entry>
  <entry>
    <fullUrl value="urn:uuid:ef49d32f-ae40-4ae6-931f-0afb9ce34e16"/>
    <resource>
      <Practitioner>
        <id value="ef49d32f-ae40-4ae6-931f-0afb9ce34e16"/>
        <name>
          <family value="Laborleiter"/>
          <given value="Larissa"/>
          <prefix value="Dr.">
            <extension url="http://hl7.org/fhir/StructureDefinition/iso21090-EN-qualifier">
              <valueCode value="AC"/>
            </extension>
          </prefix>
        </name>
        <telecom>
          <system value="phone"/>
          <value value="+43.1.12345678"/>
          <use value="work"/>
        </telecom>
        <address>
          <line value="Laborplatz 1"/>
          <city value="Wien"/>
          <postalCode value="1210"/>
          <country value="AUT"/>
        </address>
      </Practitioner>
    </resource>
  </entry>
  <entry>
    <fullUrl value="urn:uuid:e57a1955-7978-40dd-b3fd-71f4a8f025a4"/>
    <resource>
      <Organization>
        <id value="e57a1955-7978-40dd-b3fd-71f4a8f025a4"/>
        <identifier>
          <system value="urn:ietf:rfc:3986"/>
          <value value="urn:oid:1.2.40.0.34.99.111"/>
          <assigner>
            <display value="GDA Index"/>
          </assigner>
        </identifier>
        <name value="Zentrallabor"/>
        <telecom>
          <system value="phone"/>
          <value value="+43.1.12345678"/>
          <use value="work"/>
        </telecom>
        <address>
          <line value="Laborpatz 1"/>
          <city value="Wien"/>
          <postalCode value="1210"/>
          <country value="AUT"/>
        </address>
      </Organization>
    </resource>
  </entry>
  <entry>
    <fullUrl value="urn:uuid:4c41cc17-8a9c-4eb8-b40b-90418abd277f"/>
    <resource>
      <Observation>
        <id value="4c41cc17-8a9c-4eb8-b40b-90418abd277f"/>
        <meta>
          <profile value="http://hl7.eu/fhir/laboratory/StructureDefinition/Observation-resultslab-eu-lab"/>
        </meta>
        <status value="final"/>
        <category>
          <coding>
            <system value="http://terminology.hl7.org/CodeSystem/observation-category"/>
            <code value="laboratory"/>
          </coding>
        </category>
        <category>
          <coding>
            <system value="https://termgit.elga.gv.at/CodeSystem/elga-laborparameterergaenzung"/>
            <code value="04160"/>
          </coding>
        </category>
        <code>
          <coding>
            <system value="https://termgit.elga.gv.at/CodeSystem/elga-laborparameterergaenzung"/>
            <code value="04160"/>
          </coding>
        </code>
        <subject>
          <reference value="urn:uuid:718cc2e3-a4ee-41a1-a5f3-04307f76319f"/>
        </subject>
        <effectiveDateTime value="1900-01-01">
          <extension url="http://hl7.org/fhir/StructureDefinition/data-absent-reason">
            <valueCode value="not-applicable"/>
          </extension>
        </effectiveDateTime>
        <issued value="2021-06-01T13:01:00+02:00"/>
        <performer>
          <reference value="urn:uuid:44a3e5dc-ad19-44cf-868f-601f836b46eb"/>
          <type value="PractitionerRole"/>
        </performer>
        <hasMember>
          <reference value="urn:uuid:8c188545-c354-4a62-947f-e4832cd66502"/>
          <type value="Observation"/>
        </hasMember>
        <hasMember>
          <reference value="urn:uuid:2f2e2726-e2a4-4e10-bf15-291ef57bc0ec"/>
          <type value="Observation"/>
        </hasMember>
      </Observation>
    </resource>
  </entry>
  <entry>
    <fullUrl value="urn:uuid:8c188545-c354-4a62-947f-e4832cd66502"/>
    <resource>
      <Observation>
        <id value="8c188545-c354-4a62-947f-e4832cd66502"/>
        <meta>
          <profile value="http://hl7.eu/fhir/laboratory/StructureDefinition/Observation-resultslab-eu-lab"/>
        </meta>
        <identifier>
          <system value="urn:oid:1.2.40.0.34.99.4613.122082.1.3.5"/>
          <value value="OBS-2-8"/>
        </identifier>
        <status value="final"/>
        <category>
          <coding>
            <system value="http://terminology.hl7.org/CodeSystem/observation-category"/>
            <code value="laboratory"/>
          </coding>
        </category>
        <code>
          <coding>
            <system value="http://loinc.org"/>
            <code value="27818-4"/>
          </coding>
        </code>
        <subject>
          <reference value="urn:uuid:718cc2e3-a4ee-41a1-a5f3-04307f76319f"/>
        </subject>
        <effectiveDateTime value="2021-06-01T13:01:00+02:00"/>
        <issued value="2021-06-01T13:01:00+02:00"/>
        <performer>
          <reference value="urn:uuid:44a3e5dc-ad19-44cf-868f-601f836b46eb"/>
          <type value="PractitionerRole"/>
        </performer>
        <valueQuantity>
          <value value="125"/>
          <system value="http://unitsofmeasure.org"/>
          <code value="%"/>
        </valueQuantity>
        <interpretation>
          <coding>
            <system value="http://terminology.hl7.org/CodeSystem/v3-ObservationInterpretation"/>
            <code value="N"/>
          </coding>
        </interpretation>
        <referenceRange>
          <low>
            <value value="70"/>
            <system value="http://unitsofmeasure.org"/>
            <code value="%"/>
          </low>
          <high>
            <value value="140"/>
            <system value="http://unitsofmeasure.org"/>
            <code value="%"/>
          </high>
          <type>
            <coding>
              <system value="http://terminology.hl7.org/CodeSystem/referencerange-meaning"/>
              <code value="normal"/>
            </coding>
          </type>
        </referenceRange>
      </Observation>
    </resource>
  </entry>
  <entry>
    <fullUrl value="urn:uuid:2f2e2726-e2a4-4e10-bf15-291ef57bc0ec"/>
    <resource>
      <Observation>
        <id value="2f2e2726-e2a4-4e10-bf15-291ef57bc0ec"/>
        <meta>
          <profile value="http://hl7.eu/fhir/laboratory/StructureDefinition/Observation-resultslab-eu-lab"/>
        </meta>
        <identifier>
          <system value="urn:oid:1.2.40.0.34.99.4613.122082.1.3.5"/>
          <value value="OBS-2-9"/>
        </identifier>
        <status value="final"/>
        <category>
          <coding>
            <system value="http://terminology.hl7.org/CodeSystem/observation-category"/>
            <code value="laboratory"/>
          </coding>
        </category>
        <code>
          <coding>
            <system value="http://loinc.org"/>
            <code value="31102-7"/>
          </coding>
        </code>
        <subject>
          <reference value="urn:uuid:718cc2e3-a4ee-41a1-a5f3-04307f76319f"/>
        </subject>
        <effectiveDateTime value="2021-06-01T13:01:00+02:00"/>
        <issued value="2021-06-01T13:01:00+02:00"/>
        <performer>
          <reference value="urn:uuid:44a3e5dc-ad19-44cf-868f-601f836b46eb"/>
          <type value="PractitionerRole"/>
        </performer>
        <valueQuantity>
          <value value="75"/>
          <system value="http://unitsofmeasure.org"/>
          <code value="%"/>
        </valueQuantity>
        <interpretation>
          <coding>
            <system value="http://terminology.hl7.org/CodeSystem/v3-ObservationInterpretation"/>
            <code value="N"/>
          </coding>
        </interpretation>
        <referenceRange>
          <low>
            <value value="60"/>
            <system value="http://unitsofmeasure.org"/>
            <code value="%"/>
          </low>
          <high>
            <value value="140"/>
            <system value="http://unitsofmeasure.org"/>
            <code value="%"/>
          </high>
          <type>
            <coding>
              <system value="http://terminology.hl7.org/CodeSystem/referencerange-meaning"/>
              <code value="normal"/>
            </coding>
          </type>
        </referenceRange>
      </Observation>
    </resource>
  </entry>
  <entry>
    <fullUrl value="urn:uuid:5ffdcc92-b78e-4714-91ac-9dcb6911fd0a"/>
    <resource>
      <Observation>
        <id value="5ffdcc92-b78e-4714-91ac-9dcb6911fd0a"/>
        <meta>
          <profile value="http://hl7.eu/fhir/laboratory/StructureDefinition/Observation-resultslab-eu-lab"/>
        </meta>
        <status value="final"/>
        <category>
          <coding>
            <system value="http://terminology.hl7.org/CodeSystem/observation-category"/>
            <code value="laboratory"/>
          </coding>
        </category>
        <category>
          <coding>
            <system value="https://termgit.elga.gv.at/CodeSystem/elga-laborparameterergaenzung"/>
            <code value="05180"/>
          </coding>
        </category>
        <code>
          <coding>
            <system value="https://termgit.elga.gv.at/CodeSystem/elga-laborparameterergaenzung"/>
            <code value="05180"/>
          </coding>
        </code>
        <subject>
          <reference value="urn:uuid:718cc2e3-a4ee-41a1-a5f3-04307f76319f"/>
        </subject>
        <effectiveDateTime value="1900-01-01">
          <extension url="http://hl7.org/fhir/StructureDefinition/data-absent-reason">
            <valueCode value="not-applicable"/>
          </extension>
        </effectiveDateTime>
        <issued value="2021-06-01T13:01:00+02:00"/>
        <performer>
          <reference value="urn:uuid:44a3e5dc-ad19-44cf-868f-601f836b46eb"/>
          <type value="PractitionerRole"/>
        </performer>
        <hasMember>
          <reference value="urn:uuid:d0877925-9d9d-4ec2-b6b0-e76ab331a267"/>
          <type value="Observation"/>
        </hasMember>
        <hasMember>
          <reference value="urn:uuid:299cc7a3-4ce7-4b34-8f2f-dd6fd34f47d2"/>
          <type value="Observation"/>
        </hasMember>
        <hasMember>
          <reference value="urn:uuid:7bc528c1-f6df-42aa-bff4-02570b05e583"/>
          <type value="Observation"/>
        </hasMember>
        <hasMember>
          <reference value="urn:uuid:77fc1e59-0447-42c6-a057-ff3beebd4ca2"/>
          <type value="Observation"/>
        </hasMember>
        <hasMember>
          <reference value="urn:uuid:54ecb628-0b4a-42ad-ae56-81a188045d6c"/>
          <type value="Observation"/>
        </hasMember>
        <hasMember>
          <reference value="urn:uuid:f5e6b314-f5af-425b-a0d9-12542fcb80c0"/>
          <type value="Observation"/>
        </hasMember>
        <hasMember>
          <reference value="urn:uuid:e3a46447-38b5-43f2-9443-907ee8012c6e"/>
          <type value="Observation"/>
        </hasMember>
        <hasMember>
          <reference value="urn:uuid:319da463-466a-47c3-b72d-5911ab869dcb"/>
          <type value="Observation"/>
        </hasMember>
        <hasMember>
          <reference value="urn:uuid:e0a94a5e-5bea-4021-aae7-9a6dff9dcc79"/>
          <type value="Observation"/>
        </hasMember>
        <hasMember>
          <reference value="urn:uuid:abc83326-c587-4eb7-85cb-c6a16aa8e2e1"/>
          <type value="Observation"/>
        </hasMember>
        <hasMember>
          <reference value="urn:uuid:c6746cc9-10a4-4f2e-befb-384cf93409c5"/>
          <type value="Observation"/>
        </hasMember>
        <hasMember>
          <reference value="urn:uuid:1f8de602-1315-4bc9-908b-5fb47d15eded"/>
          <type value="Observation"/>
        </hasMember>
        <hasMember>
          <reference value="urn:uuid:4e161e78-8c0e-4e16-818f-80dd93917066"/>
          <type value="Observation"/>
        </hasMember>
        <hasMember>
          <reference value="urn:uuid:411e7acc-0e94-4c56-a84f-90654122ea9b"/>
          <type value="Observation"/>
        </hasMember>
        <hasMember>
          <reference value="urn:uuid:9e65576f-0c89-4680-981e-43cce5d411f8"/>
          <type value="Observation"/>
        </hasMember>
        <hasMember>
          <reference value="urn:uuid:7e318edb-5b0c-4799-aff2-da83a3917a5c"/>
          <type value="Observation"/>
        </hasMember>
        <hasMember>
          <reference value="urn:uuid:4d469494-1cea-4f3c-b900-e68488ac4c8f"/>
          <type value="Observation"/>
        </hasMember>
        <hasMember>
          <reference value="urn:uuid:7218ece9-f81e-4636-b1de-49f347b3b5c2"/>
          <type value="Observation"/>
        </hasMember>
        <hasMember>
          <reference value="urn:uuid:fe31a16f-f9a7-49c1-85bc-bd15135256dd"/>
          <type value="Observation"/>
        </hasMember>
        <hasMember>
          <reference value="urn:uuid:8641df3a-589d-4b18-b869-32b0f87c2697"/>
          <type value="Observation"/>
        </hasMember>
        <hasMember>
          <reference value="urn:uuid:59bafb20-45b4-4b27-b6c8-7f0be201595d"/>
          <type value="Observation"/>
        </hasMember>
      </Observation>
    </resource>
  </entry>
  <entry>
    <fullUrl value="urn:uuid:d0877925-9d9d-4ec2-b6b0-e76ab331a267"/>
    <resource>
      <Observation>
        <id value="d0877925-9d9d-4ec2-b6b0-e76ab331a267"/>
        <meta>
          <profile value="http://hl7.eu/fhir/laboratory/StructureDefinition/Observation-resultslab-eu-lab"/>
        </meta>
        <identifier>
          <system value="urn:oid:1.2.40.0.34.99.4613.122082.1.3.5"/>
          <value value="OBS-3-1"/>
        </identifier>
        <status value="final"/>
        <category>
          <coding>
            <system value="http://terminology.hl7.org/CodeSystem/observation-category"/>
            <code value="laboratory"/>
          </coding>
        </category>
        <code>
          <coding>
            <system value="http://loinc.org"/>
            <code value="4537-7"/>
          </coding>
        </code>
        <subject>
          <reference value="urn:uuid:718cc2e3-a4ee-41a1-a5f3-04307f76319f"/>
        </subject>
        <effectiveDateTime value="2021-06-01T13:01:00+02:00"/>
        <issued value="2021-06-01T13:01:00+02:00"/>
        <performer>
          <reference value="urn:uuid:44a3e5dc-ad19-44cf-868f-601f836b46eb"/>
          <type value="PractitionerRole"/>
        </performer>
        <valueQuantity>
          <value value="33"/>
          <system value="http://unitsofmeasure.org"/>
          <code value="mm"/>
        </valueQuantity>
        <interpretation>
          <coding>
            <system value="http://terminology.hl7.org/CodeSystem/v3-ObservationInterpretation"/>
            <code value="H"/>
          </coding>
        </interpretation>
        <referenceRange>
          <low>
            <value value="1"/>
            <system value="http://unitsofmeasure.org"/>
            <code value="mm"/>
          </low>
          <high>
            <value value="22"/>
            <system value="http://unitsofmeasure.org"/>
            <code value="mm"/>
          </high>
          <type>
            <coding>
              <system value="http://terminology.hl7.org/CodeSystem/referencerange-meaning"/>
              <code value="normal"/>
            </coding>
          </type>
        </referenceRange>
      </Observation>
    </resource>
  </entry>
  <entry>
    <fullUrl value="urn:uuid:299cc7a3-4ce7-4b34-8f2f-dd6fd34f47d2"/>
    <resource>
      <Observation>
        <id value="299cc7a3-4ce7-4b34-8f2f-dd6fd34f47d2"/>
        <meta>
          <profile value="http://hl7.eu/fhir/laboratory/StructureDefinition/Observation-resultslab-eu-lab"/>
        </meta>
        <identifier>
          <system value="urn:oid:1.2.40.0.34.99.4613.122082.1.3.5"/>
          <value value="OBS-3-2"/>
        </identifier>
        <status value="final"/>
        <category>
          <coding>
            <system value="http://terminology.hl7.org/CodeSystem/observation-category"/>
            <code value="laboratory"/>
          </coding>
        </category>
        <code>
          <coding>
            <system value="http://loinc.org"/>
            <code value="18184-2"/>
          </coding>
        </code>
        <subject>
          <reference value="urn:uuid:718cc2e3-a4ee-41a1-a5f3-04307f76319f"/>
        </subject>
        <effectiveDateTime value="2021-06-01T13:01:00+02:00"/>
        <issued value="2021-06-01T13:01:00+02:00"/>
        <performer>
          <reference value="urn:uuid:44a3e5dc-ad19-44cf-868f-601f836b46eb"/>
          <type value="PractitionerRole"/>
        </performer>
        <valueQuantity>
          <value value="56"/>
          <system value="http://unitsofmeasure.org"/>
          <code value="mm"/>
        </valueQuantity>
        <interpretation>
          <coding>
            <system value="http://terminology.hl7.org/CodeSystem/v3-ObservationInterpretation"/>
            <code value="H"/>
          </coding>
        </interpretation>
        <referenceRange>
          <low>
            <value value="2"/>
            <system value="http://unitsofmeasure.org"/>
            <code value="mm"/>
          </low>
          <high>
            <value value="35"/>
            <system value="http://unitsofmeasure.org"/>
            <code value="mm"/>
          </high>
          <type>
            <coding>
              <system value="http://terminology.hl7.org/CodeSystem/referencerange-meaning"/>
              <code value="normal"/>
            </coding>
          </type>
        </referenceRange>
      </Observation>
    </resource>
  </entry>
  <entry>
    <fullUrl value="urn:uuid:7bc528c1-f6df-42aa-bff4-02570b05e583"/>
    <resource>
      <Observation>
        <id value="7bc528c1-f6df-42aa-bff4-02570b05e583"/>
        <meta>
          <profile value="http://hl7.eu/fhir/laboratory/StructureDefinition/Observation-resultslab-eu-lab"/>
        </meta>
        <identifier>
          <system value="urn:oid:1.2.40.0.34.99.4613.122082.1.3.5"/>
          <value value="OBS-3-3"/>
        </identifier>
        <status value="final"/>
        <category>
          <coding>
            <system value="http://terminology.hl7.org/CodeSystem/observation-category"/>
            <code value="laboratory"/>
          </coding>
        </category>
        <code>
          <coding>
            <system value="http://loinc.org"/>
            <code value="2823-3"/>
          </coding>
        </code>
        <subject>
          <reference value="urn:uuid:718cc2e3-a4ee-41a1-a5f3-04307f76319f"/>
        </subject>
        <effectiveDateTime value="2021-06-01T13:01:00+02:00"/>
        <issued value="2021-06-01T13:01:00+02:00"/>
        <performer>
          <reference value="urn:uuid:44a3e5dc-ad19-44cf-868f-601f836b46eb"/>
          <type value="PractitionerRole"/>
        </performer>
        <valueQuantity>
          <value value="4.96"/>
          <system value="http://unitsofmeasure.org"/>
          <code value="mmol/L"/>
        </valueQuantity>
        <interpretation>
          <coding>
            <system value="http://terminology.hl7.org/CodeSystem/v3-ObservationInterpretation"/>
            <code value="N"/>
          </coding>
        </interpretation>
        <referenceRange>
          <low>
            <value value="3.50"/>
            <system value="http://unitsofmeasure.org"/>
            <code value="mmol/L"/>
          </low>
          <high>
            <value value="5.30"/>
            <system value="http://unitsofmeasure.org"/>
            <code value="mmol/L"/>
          </high>
          <type>
            <coding>
              <system value="http://terminology.hl7.org/CodeSystem/referencerange-meaning"/>
              <code value="normal"/>
            </coding>
          </type>
        </referenceRange>
      </Observation>
    </resource>
  </entry>
  <entry>
    <fullUrl value="urn:uuid:77fc1e59-0447-42c6-a057-ff3beebd4ca2"/>
    <resource>
      <Observation>
        <id value="77fc1e59-0447-42c6-a057-ff3beebd4ca2"/>
        <meta>
          <profile value="http://hl7.eu/fhir/laboratory/StructureDefinition/Observation-resultslab-eu-lab"/>
        </meta>
        <identifier>
          <system value="urn:oid:1.2.40.0.34.99.4613.122082.1.3.5"/>
          <value value="OBS-3-4"/>
        </identifier>
        <status value="final"/>
        <category>
          <coding>
            <system value="http://terminology.hl7.org/CodeSystem/observation-category"/>
            <code value="laboratory"/>
          </coding>
        </category>
        <code>
          <coding>
            <system value="http://loinc.org"/>
            <code value="2951-2"/>
          </coding>
        </code>
        <subject>
          <reference value="urn:uuid:718cc2e3-a4ee-41a1-a5f3-04307f76319f"/>
        </subject>
        <effectiveDateTime value="2021-06-01T13:01:00+02:00"/>
        <issued value="2021-06-01T13:01:00+02:00"/>
        <performer>
          <reference value="urn:uuid:44a3e5dc-ad19-44cf-868f-601f836b46eb"/>
          <type value="PractitionerRole"/>
        </performer>
        <valueQuantity>
          <value value="137"/>
          <system value="http://unitsofmeasure.org"/>
          <code value="mmol/L"/>
        </valueQuantity>
        <interpretation>
          <coding>
            <system value="http://terminology.hl7.org/CodeSystem/v3-ObservationInterpretation"/>
            <code value="N"/>
          </coding>
        </interpretation>
        <referenceRange>
          <low>
            <value value="135"/>
            <system value="http://unitsofmeasure.org"/>
            <code value="mmol/L"/>
          </low>
          <high>
            <value value="150"/>
            <system value="http://unitsofmeasure.org"/>
            <code value="mmol/L"/>
          </high>
          <type>
            <coding>
              <system value="http://terminology.hl7.org/CodeSystem/referencerange-meaning"/>
              <code value="normal"/>
            </coding>
          </type>
        </referenceRange>
      </Observation>
    </resource>
  </entry>
  <entry>
    <fullUrl value="urn:uuid:54ecb628-0b4a-42ad-ae56-81a188045d6c"/>
    <resource>
      <Observation>
        <id value="54ecb628-0b4a-42ad-ae56-81a188045d6c"/>
        <meta>
          <profile value="http://hl7.eu/fhir/laboratory/StructureDefinition/Observation-resultslab-eu-lab"/>
        </meta>
        <identifier>
          <system value="urn:oid:1.2.40.0.34.99.4613.122082.1.3.5"/>
          <value value="OBS-3-5"/>
        </identifier>
        <status value="final"/>
        <category>
          <coding>
            <system value="http://terminology.hl7.org/CodeSystem/observation-category"/>
            <code value="laboratory"/>
          </coding>
        </category>
        <code>
          <coding>
            <system value="http://loinc.org"/>
            <code value="2075-0"/>
          </coding>
        </code>
        <subject>
          <reference value="urn:uuid:718cc2e3-a4ee-41a1-a5f3-04307f76319f"/>
        </subject>
        <effectiveDateTime value="2021-06-01T13:01:00+02:00"/>
        <issued value="2021-06-01T13:01:00+02:00"/>
        <performer>
          <reference value="urn:uuid:44a3e5dc-ad19-44cf-868f-601f836b46eb"/>
          <type value="PractitionerRole"/>
        </performer>
        <valueQuantity>
          <value value="105"/>
          <system value="http://unitsofmeasure.org"/>
          <code value="mmol/L"/>
        </valueQuantity>
        <interpretation>
          <coding>
            <system value="http://terminology.hl7.org/CodeSystem/v3-ObservationInterpretation"/>
            <code value="N"/>
          </coding>
        </interpretation>
        <referenceRange>
          <low>
            <value value="95"/>
            <system value="http://unitsofmeasure.org"/>
            <code value="mmol/L"/>
          </low>
          <high>
            <value value="110"/>
            <system value="http://unitsofmeasure.org"/>
            <code value="mmol/L"/>
          </high>
          <type>
            <coding>
              <system value="http://terminology.hl7.org/CodeSystem/referencerange-meaning"/>
              <code value="normal"/>
            </coding>
          </type>
        </referenceRange>
      </Observation>
    </resource>
  </entry>
  <entry>
    <fullUrl value="urn:uuid:f5e6b314-f5af-425b-a0d9-12542fcb80c0"/>
    <resource>
      <Observation>
        <id value="f5e6b314-f5af-425b-a0d9-12542fcb80c0"/>
        <meta>
          <profile value="http://hl7.eu/fhir/laboratory/StructureDefinition/Observation-resultslab-eu-lab"/>
        </meta>
        <identifier>
          <system value="urn:oid:1.2.40.0.34.99.4613.122082.1.3.5"/>
          <value value="OBS-3-6"/>
        </identifier>
        <status value="final"/>
        <category>
          <coding>
            <system value="http://terminology.hl7.org/CodeSystem/observation-category"/>
            <code value="laboratory"/>
          </coding>
        </category>
        <code>
          <coding>
            <system value="http://loinc.org"/>
            <code value="2000-8"/>
          </coding>
        </code>
        <subject>
          <reference value="urn:uuid:718cc2e3-a4ee-41a1-a5f3-04307f76319f"/>
        </subject>
        <effectiveDateTime value="2021-06-01T13:01:00+02:00"/>
        <issued value="2021-06-01T13:01:00+02:00"/>
        <performer>
          <reference value="urn:uuid:44a3e5dc-ad19-44cf-868f-601f836b46eb"/>
          <type value="PractitionerRole"/>
        </performer>
        <valueQuantity>
          <value value="2.71"/>
          <system value="http://unitsofmeasure.org"/>
          <code value="mmol/L"/>
        </valueQuantity>
        <interpretation>
          <coding>
            <system value="http://terminology.hl7.org/CodeSystem/v3-ObservationInterpretation"/>
            <code value="H"/>
          </coding>
        </interpretation>
        <referenceRange>
          <low>
            <value value="2.15"/>
            <system value="http://unitsofmeasure.org"/>
            <code value="mmol/L"/>
          </low>
          <high>
            <value value="2.60"/>
            <system value="http://unitsofmeasure.org"/>
            <code value="mmol/L"/>
          </high>
          <type>
            <coding>
              <system value="http://terminology.hl7.org/CodeSystem/referencerange-meaning"/>
              <code value="normal"/>
            </coding>
          </type>
        </referenceRange>
      </Observation>
    </resource>
  </entry>
  <entry>
    <fullUrl value="urn:uuid:e3a46447-38b5-43f2-9443-907ee8012c6e"/>
    <resource>
      <Observation>
        <id value="e3a46447-38b5-43f2-9443-907ee8012c6e"/>
        <meta>
          <profile value="http://hl7.eu/fhir/laboratory/StructureDefinition/Observation-resultslab-eu-lab"/>
        </meta>
        <identifier>
          <system value="urn:oid:1.2.40.0.34.99.4613.122082.1.3.5"/>
          <value value="OBS-3-7"/>
        </identifier>
        <status value="final"/>
        <category>
          <coding>
            <system value="http://terminology.hl7.org/CodeSystem/observation-category"/>
            <code value="laboratory"/>
          </coding>
        </category>
        <code>
          <coding>
            <system value="http://loinc.org"/>
            <code value="2157-6"/>
          </coding>
        </code>
        <subject>
          <reference value="urn:uuid:718cc2e3-a4ee-41a1-a5f3-04307f76319f"/>
        </subject>
        <effectiveDateTime value="2021-06-01T13:01:00+02:00"/>
        <issued value="2021-06-01T13:01:00+02:00"/>
        <performer>
          <reference value="urn:uuid:44a3e5dc-ad19-44cf-868f-601f836b46eb"/>
          <type value="PractitionerRole"/>
        </performer>
        <valueQuantity>
          <value value="142"/>
          <system value="http://unitsofmeasure.org"/>
          <code value="[IU]/L"/>
        </valueQuantity>
        <interpretation>
          <coding>
            <system value="http://terminology.hl7.org/CodeSystem/v3-ObservationInterpretation"/>
            <code value="N"/>
          </coding>
        </interpretation>
        <referenceRange>
          <low>
            <value value="0"/>
            <system value="http://unitsofmeasure.org"/>
            <code value="[IU]/L"/>
          </low>
          <high>
            <value value="170"/>
            <system value="http://unitsofmeasure.org"/>
            <code value="[IU]/L"/>
          </high>
          <type>
            <coding>
              <system value="http://terminology.hl7.org/CodeSystem/referencerange-meaning"/>
              <code value="normal"/>
            </coding>
          </type>
        </referenceRange>
      </Observation>
    </resource>
  </entry>
  <entry>
    <fullUrl value="urn:uuid:319da463-466a-47c3-b72d-5911ab869dcb"/>
    <resource>
      <Observation>
        <id value="319da463-466a-47c3-b72d-5911ab869dcb"/>
        <meta>
          <profile value="http://hl7.eu/fhir/laboratory/StructureDefinition/Observation-resultslab-eu-lab"/>
        </meta>
        <identifier>
          <system value="urn:oid:1.2.40.0.34.99.4613.122082.1.3.5"/>
          <value value="OBS-3-8"/>
        </identifier>
        <status value="final"/>
        <category>
          <coding>
            <system value="http://terminology.hl7.org/CodeSystem/observation-category"/>
            <code value="laboratory"/>
          </coding>
        </category>
        <code>
          <coding>
            <system value="http://loinc.org"/>
            <code value="10839-9"/>
          </coding>
        </code>
        <subject>
          <reference value="urn:uuid:718cc2e3-a4ee-41a1-a5f3-04307f76319f"/>
        </subject>
        <effectiveDateTime value="2021-06-01T13:01:00+02:00"/>
        <issued value="2021-06-01T13:01:00+02:00"/>
        <performer>
          <reference value="urn:uuid:44a3e5dc-ad19-44cf-868f-601f836b46eb"/>
          <type value="PractitionerRole"/>
        </performer>
        <valueQuantity>
          <value value="0.01"/>
          <system value="http://unitsofmeasure.org"/>
          <code value="ng/L"/>
        </valueQuantity>
        <interpretation>
          <coding>
            <system value="http://terminology.hl7.org/CodeSystem/v3-ObservationInterpretation"/>
            <code value="N"/>
          </coding>
        </interpretation>
        <referenceRange>
          <low>
            <value value="0.00"/>
            <system value="http://unitsofmeasure.org"/>
            <code value="ng/L"/>
          </low>
          <high>
            <value value="0.04"/>
            <system value="http://unitsofmeasure.org"/>
            <code value="ng/L"/>
          </high>
          <type>
            <coding>
              <system value="http://terminology.hl7.org/CodeSystem/referencerange-meaning"/>
              <code value="normal"/>
            </coding>
          </type>
        </referenceRange>
      </Observation>
    </resource>
  </entry>
  <entry>
    <fullUrl value="urn:uuid:e0a94a5e-5bea-4021-aae7-9a6dff9dcc79"/>
    <resource>
      <Observation>
        <id value="e0a94a5e-5bea-4021-aae7-9a6dff9dcc79"/>
        <meta>
          <profile value="http://hl7.eu/fhir/laboratory/StructureDefinition/Observation-resultslab-eu-lab"/>
        </meta>
        <identifier>
          <system value="urn:oid:1.2.40.0.34.99.4613.122082.1.3.5"/>
          <value value="OBS-3-9"/>
        </identifier>
        <status value="final"/>
        <category>
          <coding>
            <system value="http://terminology.hl7.org/CodeSystem/observation-category"/>
            <code value="laboratory"/>
          </coding>
        </category>
        <code>
          <coding>
            <system value="http://loinc.org"/>
            <code value="1920-8"/>
          </coding>
        </code>
        <subject>
          <reference value="urn:uuid:718cc2e3-a4ee-41a1-a5f3-04307f76319f"/>
        </subject>
        <effectiveDateTime value="2021-06-01T13:01:00+02:00"/>
        <issued value="2021-06-01T13:01:00+02:00"/>
        <performer>
          <reference value="urn:uuid:44a3e5dc-ad19-44cf-868f-601f836b46eb"/>
          <type value="PractitionerRole"/>
        </performer>
        <valueQuantity>
          <value value="28"/>
          <system value="http://unitsofmeasure.org"/>
          <code value="[IU]/L"/>
        </valueQuantity>
        <interpretation>
          <coding>
            <system value="http://terminology.hl7.org/CodeSystem/v3-ObservationInterpretation"/>
            <code value="N"/>
          </coding>
        </interpretation>
        <referenceRange>
          <low>
            <value value="0"/>
            <system value="http://unitsofmeasure.org"/>
            <code value="[IU]/L"/>
          </low>
          <high>
            <value value="38"/>
            <system value="http://unitsofmeasure.org"/>
            <code value="[IU]/L"/>
          </high>
          <type>
            <coding>
              <system value="http://terminology.hl7.org/CodeSystem/referencerange-meaning"/>
              <code value="normal"/>
            </coding>
          </type>
        </referenceRange>
      </Observation>
    </resource>
  </entry>
  <entry>
    <fullUrl value="urn:uuid:abc83326-c587-4eb7-85cb-c6a16aa8e2e1"/>
    <resource>
      <Observation>
        <id value="abc83326-c587-4eb7-85cb-c6a16aa8e2e1"/>
        <meta>
          <profile value="http://hl7.eu/fhir/laboratory/StructureDefinition/Observation-resultslab-eu-lab"/>
        </meta>
        <identifier>
          <system value="urn:oid:1.2.40.0.34.99.4613.122082.1.3.5"/>
          <value value="OBS-3-10"/>
        </identifier>
        <status value="final"/>
        <category>
          <coding>
            <system value="http://terminology.hl7.org/CodeSystem/observation-category"/>
            <code value="laboratory"/>
          </coding>
        </category>
        <code>
          <coding>
            <system value="http://loinc.org"/>
            <code value="1742-6"/>
          </coding>
        </code>
        <subject>
          <reference value="urn:uuid:718cc2e3-a4ee-41a1-a5f3-04307f76319f"/>
        </subject>
        <effectiveDateTime value="2021-06-01T13:01:00+02:00"/>
        <issued value="2021-06-01T13:01:00+02:00"/>
        <performer>
          <reference value="urn:uuid:44a3e5dc-ad19-44cf-868f-601f836b46eb"/>
          <type value="PractitionerRole"/>
        </performer>
        <valueQuantity>
          <value value="25"/>
          <system value="http://unitsofmeasure.org"/>
          <code value="[IU]/L"/>
        </valueQuantity>
        <interpretation>
          <coding>
            <system value="http://terminology.hl7.org/CodeSystem/v3-ObservationInterpretation"/>
            <code value="N"/>
          </coding>
        </interpretation>
        <referenceRange>
          <low>
            <value value="0"/>
            <system value="http://unitsofmeasure.org"/>
            <code value="[IU]/L"/>
          </low>
          <high>
            <value value="41"/>
            <system value="http://unitsofmeasure.org"/>
            <code value="[IU]/L"/>
          </high>
          <type>
            <coding>
              <system value="http://terminology.hl7.org/CodeSystem/referencerange-meaning"/>
              <code value="normal"/>
            </coding>
          </type>
        </referenceRange>
      </Observation>
    </resource>
  </entry>
  <entry>
    <fullUrl value="urn:uuid:c6746cc9-10a4-4f2e-befb-384cf93409c5"/>
    <resource>
      <Observation>
        <id value="c6746cc9-10a4-4f2e-befb-384cf93409c5"/>
        <meta>
          <profile value="http://hl7.eu/fhir/laboratory/StructureDefinition/Observation-resultslab-eu-lab"/>
        </meta>
        <identifier>
          <system value="urn:oid:1.2.40.0.34.99.4613.122082.1.3.5"/>
          <value value="OBS-3-11"/>
        </identifier>
        <status value="final"/>
        <category>
          <coding>
            <system value="http://terminology.hl7.org/CodeSystem/observation-category"/>
            <code value="laboratory"/>
          </coding>
        </category>
        <code>
          <coding>
            <system value="http://loinc.org"/>
            <code value="2324-2"/>
          </coding>
        </code>
        <subject>
          <reference value="urn:uuid:718cc2e3-a4ee-41a1-a5f3-04307f76319f"/>
        </subject>
        <effectiveDateTime value="2021-06-01T13:01:00+02:00"/>
        <issued value="2021-06-01T13:01:00+02:00"/>
        <performer>
          <reference value="urn:uuid:44a3e5dc-ad19-44cf-868f-601f836b46eb"/>
          <type value="PractitionerRole"/>
        </performer>
        <valueQuantity>
          <value value="21"/>
          <system value="http://unitsofmeasure.org"/>
          <code value="[IU]/L"/>
        </valueQuantity>
        <interpretation>
          <coding>
            <system value="http://terminology.hl7.org/CodeSystem/v3-ObservationInterpretation"/>
            <code value="N"/>
          </coding>
        </interpretation>
        <referenceRange>
          <low>
            <value value="0"/>
            <system value="http://unitsofmeasure.org"/>
            <code value="[IU]/L"/>
          </low>
          <high>
            <value value="66"/>
            <system value="http://unitsofmeasure.org"/>
            <code value="[IU]/L"/>
          </high>
          <type>
            <coding>
              <system value="http://terminology.hl7.org/CodeSystem/referencerange-meaning"/>
              <code value="normal"/>
            </coding>
          </type>
        </referenceRange>
      </Observation>
    </resource>
  </entry>
  <entry>
    <fullUrl value="urn:uuid:1f8de602-1315-4bc9-908b-5fb47d15eded"/>
    <resource>
      <Observation>
        <id value="1f8de602-1315-4bc9-908b-5fb47d15eded"/>
        <meta>
          <profile value="http://hl7.eu/fhir/laboratory/StructureDefinition/Observation-resultslab-eu-lab"/>
        </meta>
        <identifier>
          <system value="urn:oid:1.2.40.0.34.99.4613.122082.1.3.5"/>
          <value value="OBS-3-12"/>
        </identifier>
        <status value="final"/>
        <category>
          <coding>
            <system value="http://terminology.hl7.org/CodeSystem/observation-category"/>
            <code value="laboratory"/>
          </coding>
        </category>
        <code>
          <coding>
            <system value="http://loinc.org"/>
            <code value="6768-6"/>
          </coding>
        </code>
        <subject>
          <reference value="urn:uuid:718cc2e3-a4ee-41a1-a5f3-04307f76319f"/>
        </subject>
        <effectiveDateTime value="2021-06-01T13:01:00+02:00"/>
        <issued value="2021-06-01T13:01:00+02:00"/>
        <performer>
          <reference value="urn:uuid:44a3e5dc-ad19-44cf-868f-601f836b46eb"/>
          <type value="PractitionerRole"/>
        </performer>
        <valueQuantity>
          <value value="54"/>
          <system value="http://unitsofmeasure.org"/>
          <code value="[IU]/L"/>
        </valueQuantity>
        <interpretation>
          <coding>
            <system value="http://terminology.hl7.org/CodeSystem/v3-ObservationInterpretation"/>
            <code value="N"/>
          </coding>
        </interpretation>
        <referenceRange>
          <low>
            <value value="40"/>
            <system value="http://unitsofmeasure.org"/>
            <code value="[IU]/L"/>
          </low>
          <high>
            <value value="129"/>
            <system value="http://unitsofmeasure.org"/>
            <code value="[IU]/L"/>
          </high>
          <type>
            <coding>
              <system value="http://terminology.hl7.org/CodeSystem/referencerange-meaning"/>
              <code value="normal"/>
            </coding>
          </type>
        </referenceRange>
      </Observation>
    </resource>
  </entry>
  <entry>
    <fullUrl value="urn:uuid:4e161e78-8c0e-4e16-818f-80dd93917066"/>
    <resource>
      <Observation>
        <id value="4e161e78-8c0e-4e16-818f-80dd93917066"/>
        <meta>
          <profile value="http://hl7.eu/fhir/laboratory/StructureDefinition/Observation-resultslab-eu-lab"/>
        </meta>
        <identifier>
          <system value="urn:oid:1.2.40.0.34.99.4613.122082.1.3.5"/>
          <value value="OBS-3-13"/>
        </identifier>
        <status value="final"/>
        <category>
          <coding>
            <system value="http://terminology.hl7.org/CodeSystem/observation-category"/>
            <code value="laboratory"/>
          </coding>
        </category>
        <code>
          <coding>
            <system value="http://loinc.org"/>
            <code value="2498-4"/>
          </coding>
        </code>
        <subject>
          <reference value="urn:uuid:718cc2e3-a4ee-41a1-a5f3-04307f76319f"/>
        </subject>
        <effectiveDateTime value="2021-06-01T13:01:00+02:00"/>
        <issued value="2021-06-01T13:01:00+02:00"/>
        <performer>
          <reference value="urn:uuid:44a3e5dc-ad19-44cf-868f-601f836b46eb"/>
          <type value="PractitionerRole"/>
        </performer>
        <valueQuantity>
          <value value="91"/>
          <system value="http://unitsofmeasure.org"/>
          <code value="ug/dL"/>
        </valueQuantity>
        <interpretation>
          <coding>
            <system value="http://terminology.hl7.org/CodeSystem/v3-ObservationInterpretation"/>
            <code value="N"/>
          </coding>
        </interpretation>
        <referenceRange>
          <low>
            <value value="80"/>
            <system value="http://unitsofmeasure.org"/>
            <code value="ug/dL"/>
          </low>
          <high>
            <value value="150"/>
            <system value="http://unitsofmeasure.org"/>
            <code value="ug/dL"/>
          </high>
          <type>
            <coding>
              <system value="http://terminology.hl7.org/CodeSystem/referencerange-meaning"/>
              <code value="normal"/>
            </coding>
          </type>
        </referenceRange>
      </Observation>
    </resource>
  </entry>
  <entry>
    <fullUrl value="urn:uuid:411e7acc-0e94-4c56-a84f-90654122ea9b"/>
    <resource>
      <Observation>
        <id value="411e7acc-0e94-4c56-a84f-90654122ea9b"/>
        <meta>
          <profile value="http://hl7.eu/fhir/laboratory/StructureDefinition/Observation-resultslab-eu-lab"/>
        </meta>
        <identifier>
          <system value="urn:oid:1.2.40.0.34.99.4613.122082.1.3.5"/>
          <value value="OBS-3-14"/>
        </identifier>
        <status value="final"/>
        <category>
          <coding>
            <system value="http://terminology.hl7.org/CodeSystem/observation-category"/>
            <code value="laboratory"/>
          </coding>
        </category>
        <code>
          <coding>
            <system value="http://loinc.org"/>
            <code value="3034-6"/>
          </coding>
        </code>
        <subject>
          <reference value="urn:uuid:718cc2e3-a4ee-41a1-a5f3-04307f76319f"/>
        </subject>
        <effectiveDateTime value="2021-06-01T13:01:00+02:00"/>
        <issued value="2021-06-01T13:01:00+02:00"/>
        <performer>
          <reference value="urn:uuid:44a3e5dc-ad19-44cf-868f-601f836b46eb"/>
          <type value="PractitionerRole"/>
        </performer>
        <valueQuantity>
          <value value="2.1"/>
          <system value="http://unitsofmeasure.org"/>
          <code value="g/L"/>
        </valueQuantity>
        <interpretation>
          <coding>
            <system value="http://terminology.hl7.org/CodeSystem/v3-ObservationInterpretation"/>
            <code value="N"/>
          </coding>
        </interpretation>
        <referenceRange>
          <low>
            <value value="2"/>
            <system value="http://unitsofmeasure.org"/>
            <code value="g/L"/>
          </low>
          <high>
            <value value="3.6"/>
            <system value="http://unitsofmeasure.org"/>
            <code value="g/L"/>
          </high>
          <type>
            <coding>
              <system value="http://terminology.hl7.org/CodeSystem/referencerange-meaning"/>
              <code value="normal"/>
            </coding>
          </type>
        </referenceRange>
      </Observation>
    </resource>
  </entry>
  <entry>
    <fullUrl value="urn:uuid:9e65576f-0c89-4680-981e-43cce5d411f8"/>
    <resource>
      <Observation>
        <id value="9e65576f-0c89-4680-981e-43cce5d411f8"/>
        <meta>
          <profile value="http://hl7.eu/fhir/laboratory/StructureDefinition/Observation-resultslab-eu-lab"/>
        </meta>
        <identifier>
          <system value="urn:oid:1.2.40.0.34.99.4613.122082.1.3.5"/>
          <value value="OBS-3-15"/>
        </identifier>
        <status value="final"/>
        <category>
          <coding>
            <system value="http://terminology.hl7.org/CodeSystem/observation-category"/>
            <code value="laboratory"/>
          </coding>
        </category>
        <code>
          <coding>
            <system value="http://loinc.org"/>
            <code value="2505-6"/>
          </coding>
        </code>
        <subject>
          <reference value="urn:uuid:718cc2e3-a4ee-41a1-a5f3-04307f76319f"/>
        </subject>
        <effectiveDateTime value="2021-06-01T13:01:00+02:00"/>
        <issued value="2021-06-01T13:01:00+02:00"/>
        <performer>
          <reference value="urn:uuid:44a3e5dc-ad19-44cf-868f-601f836b46eb"/>
          <type value="PractitionerRole"/>
        </performer>
        <valueQuantity>
          <value value="30.7"/>
          <system value="http://unitsofmeasure.org"/>
          <code value="%"/>
        </valueQuantity>
        <interpretation>
          <coding>
            <system value="http://terminology.hl7.org/CodeSystem/v3-ObservationInterpretation"/>
            <code value="N"/>
          </coding>
        </interpretation>
        <referenceRange>
          <low>
            <value value="16"/>
            <system value="http://unitsofmeasure.org"/>
            <code value="%"/>
          </low>
          <high>
            <value value="45"/>
            <system value="http://unitsofmeasure.org"/>
            <code value="%"/>
          </high>
          <type>
            <coding>
              <system value="http://terminology.hl7.org/CodeSystem/referencerange-meaning"/>
              <code value="normal"/>
            </coding>
          </type>
        </referenceRange>
      </Observation>
    </resource>
  </entry>
  <entry>
    <fullUrl value="urn:uuid:7e318edb-5b0c-4799-aff2-da83a3917a5c"/>
    <resource>
      <Observation>
        <id value="7e318edb-5b0c-4799-aff2-da83a3917a5c"/>
        <meta>
          <profile value="http://hl7.eu/fhir/laboratory/StructureDefinition/Observation-resultslab-eu-lab"/>
        </meta>
        <identifier>
          <system value="urn:oid:1.2.40.0.34.99.4613.122082.1.3.5"/>
          <value value="OBS-3-16"/>
        </identifier>
        <status value="final"/>
        <category>
          <coding>
            <system value="http://terminology.hl7.org/CodeSystem/observation-category"/>
            <code value="laboratory"/>
          </coding>
        </category>
        <code>
          <coding>
            <system value="http://loinc.org"/>
            <code value="2276-4"/>
          </coding>
        </code>
        <subject>
          <reference value="urn:uuid:718cc2e3-a4ee-41a1-a5f3-04307f76319f"/>
        </subject>
        <effectiveDateTime value="2021-06-01T13:01:00+02:00"/>
        <issued value="2021-06-01T13:01:00+02:00"/>
        <performer>
          <reference value="urn:uuid:44a3e5dc-ad19-44cf-868f-601f836b46eb"/>
          <type value="PractitionerRole"/>
        </performer>
        <valueQuantity>
          <value value="724"/>
          <system value="http://unitsofmeasure.org"/>
          <code value="ug/L"/>
        </valueQuantity>
        <interpretation>
          <coding>
            <system value="http://terminology.hl7.org/CodeSystem/v3-ObservationInterpretation"/>
            <code value="HH"/>
          </coding>
        </interpretation>
        <referenceRange>
          <low>
            <value value="15"/>
            <system value="http://unitsofmeasure.org"/>
            <code value="ug/L"/>
          </low>
          <high>
            <value value="400"/>
            <system value="http://unitsofmeasure.org"/>
            <code value="ug/L"/>
          </high>
          <type>
            <coding>
              <system value="http://terminology.hl7.org/CodeSystem/referencerange-meaning"/>
              <code value="normal"/>
            </coding>
          </type>
        </referenceRange>
      </Observation>
    </resource>
  </entry>
  <entry>
    <fullUrl value="urn:uuid:4d469494-1cea-4f3c-b900-e68488ac4c8f"/>
    <resource>
      <Observation>
        <id value="4d469494-1cea-4f3c-b900-e68488ac4c8f"/>
        <meta>
          <profile value="http://hl7.eu/fhir/laboratory/StructureDefinition/Observation-resultslab-eu-lab"/>
        </meta>
        <identifier>
          <system value="urn:oid:1.2.40.0.34.99.4613.122082.1.3.5"/>
          <value value="OBS-3-17"/>
        </identifier>
        <status value="final"/>
        <category>
          <coding>
            <system value="http://terminology.hl7.org/CodeSystem/observation-category"/>
            <code value="laboratory"/>
          </coding>
        </category>
        <code>
          <coding>
            <system value="http://loinc.org"/>
            <code value="4548-4"/>
          </coding>
        </code>
        <subject>
          <reference value="urn:uuid:718cc2e3-a4ee-41a1-a5f3-04307f76319f"/>
        </subject>
        <effectiveDateTime value="2021-06-01T13:01:00+02:00"/>
        <issued value="2021-06-01T13:01:00+02:00"/>
        <performer>
          <reference value="urn:uuid:44a3e5dc-ad19-44cf-868f-601f836b46eb"/>
          <type value="PractitionerRole"/>
        </performer>
        <valueQuantity>
          <value value="1.0"/>
          <system value="http://unitsofmeasure.org"/>
          <code value="%"/>
        </valueQuantity>
        <interpretation>
          <coding>
            <system value="http://terminology.hl7.org/CodeSystem/v3-ObservationInterpretation"/>
            <code value="N"/>
          </coding>
        </interpretation>
        <referenceRange>
          <low>
            <value value="4.4"/>
            <system value="http://unitsofmeasure.org"/>
            <code value="%"/>
          </low>
          <high>
            <value value="6.4"/>
            <system value="http://unitsofmeasure.org"/>
            <code value="%"/>
          </high>
          <type>
            <coding>
              <system value="http://terminology.hl7.org/CodeSystem/referencerange-meaning"/>
              <code value="normal"/>
            </coding>
          </type>
        </referenceRange>
      </Observation>
    </resource>
  </entry>
  <entry>
    <fullUrl value="urn:uuid:7218ece9-f81e-4636-b1de-49f347b3b5c2"/>
    <resource>
      <Observation>
        <id value="7218ece9-f81e-4636-b1de-49f347b3b5c2"/>
        <meta>
          <profile value="http://hl7.eu/fhir/laboratory/StructureDefinition/Observation-resultslab-eu-lab"/>
        </meta>
        <identifier>
          <system value="urn:oid:1.2.40.0.34.99.4613.122082.1.3.5"/>
          <value value="OBS-3-18"/>
        </identifier>
        <status value="final"/>
        <category>
          <coding>
            <system value="http://terminology.hl7.org/CodeSystem/observation-category"/>
            <code value="laboratory"/>
          </coding>
        </category>
        <code>
          <coding>
            <system value="http://loinc.org"/>
            <code value="2093-3"/>
          </coding>
        </code>
        <subject>
          <reference value="urn:uuid:718cc2e3-a4ee-41a1-a5f3-04307f76319f"/>
        </subject>
        <effectiveDateTime value="2021-06-01T13:01:00+02:00"/>
        <issued value="2021-06-01T13:01:00+02:00"/>
        <performer>
          <reference value="urn:uuid:44a3e5dc-ad19-44cf-868f-601f836b46eb"/>
          <type value="PractitionerRole"/>
        </performer>
        <valueQuantity>
          <value value="171"/>
          <system value="http://unitsofmeasure.org"/>
          <code value="mg/dL"/>
        </valueQuantity>
        <interpretation>
          <coding>
            <system value="http://terminology.hl7.org/CodeSystem/v3-ObservationInterpretation"/>
            <code value="N"/>
          </coding>
        </interpretation>
        <referenceRange>
          <low>
            <system value="http://unitsofmeasure.org"/>
          </low>
          <high>
            <value value="201"/>
            <system value="http://unitsofmeasure.org"/>
            <code value="mg/dL"/>
          </high>
          <type>
            <coding>
              <system value="http://terminology.hl7.org/CodeSystem/referencerange-meaning"/>
              <code value="normal"/>
            </coding>
          </type>
        </referenceRange>
      </Observation>
    </resource>
  </entry>
  <entry>
    <fullUrl value="urn:uuid:fe31a16f-f9a7-49c1-85bc-bd15135256dd"/>
    <resource>
      <Observation>
        <id value="fe31a16f-f9a7-49c1-85bc-bd15135256dd"/>
        <meta>
          <profile value="http://hl7.eu/fhir/laboratory/StructureDefinition/Observation-resultslab-eu-lab"/>
        </meta>
        <identifier>
          <system value="urn:oid:1.2.40.0.34.99.4613.122082.1.3.5"/>
          <value value="OBS-3-19"/>
        </identifier>
        <status value="final"/>
        <category>
          <coding>
            <system value="http://terminology.hl7.org/CodeSystem/observation-category"/>
            <code value="laboratory"/>
          </coding>
        </category>
        <code>
          <coding>
            <system value="http://loinc.org"/>
            <code value="2085-9"/>
          </coding>
        </code>
        <subject>
          <reference value="urn:uuid:718cc2e3-a4ee-41a1-a5f3-04307f76319f"/>
        </subject>
        <effectiveDateTime value="2021-06-01T13:01:00+02:00"/>
        <issued value="2021-06-01T13:01:00+02:00"/>
        <performer>
          <reference value="urn:uuid:44a3e5dc-ad19-44cf-868f-601f836b46eb"/>
          <type value="PractitionerRole"/>
        </performer>
        <valueQuantity>
          <value value="36"/>
          <system value="http://unitsofmeasure.org"/>
          <code value="mg/dL"/>
        </valueQuantity>
        <interpretation>
          <coding>
            <system value="http://terminology.hl7.org/CodeSystem/v3-ObservationInterpretation"/>
            <code value="L"/>
          </coding>
        </interpretation>
        <referenceRange>
          <low>
            <value value="65"/>
            <system value="http://unitsofmeasure.org"/>
            <code value="mg/dL"/>
          </low>
          <high>
            <system value="http://unitsofmeasure.org"/>
          </high>
          <type>
            <coding>
              <system value="http://terminology.hl7.org/CodeSystem/referencerange-meaning"/>
              <code value="normal"/>
            </coding>
          </type>
        </referenceRange>
      </Observation>
    </resource>
  </entry>
  <entry>
    <fullUrl value="urn:uuid:8641df3a-589d-4b18-b869-32b0f87c2697"/>
    <resource>
      <Observation>
        <id value="8641df3a-589d-4b18-b869-32b0f87c2697"/>
        <meta>
          <profile value="http://hl7.eu/fhir/laboratory/StructureDefinition/Observation-resultslab-eu-lab"/>
        </meta>
        <identifier>
          <system value="urn:oid:1.2.40.0.34.99.4613.122082.1.3.5"/>
          <value value="OBS-3-20"/>
        </identifier>
        <status value="final"/>
        <category>
          <coding>
            <system value="http://terminology.hl7.org/CodeSystem/observation-category"/>
            <code value="laboratory"/>
          </coding>
        </category>
        <code>
          <coding>
            <system value="http://loinc.org"/>
            <code value="2089-1"/>
          </coding>
        </code>
        <subject>
          <reference value="urn:uuid:718cc2e3-a4ee-41a1-a5f3-04307f76319f"/>
        </subject>
        <effectiveDateTime value="2021-06-01T13:01:00+02:00"/>
        <issued value="2021-06-01T13:01:00+02:00"/>
        <performer>
          <reference value="urn:uuid:44a3e5dc-ad19-44cf-868f-601f836b46eb"/>
          <type value="PractitionerRole"/>
        </performer>
        <valueQuantity>
          <value value="116"/>
          <system value="http://unitsofmeasure.org"/>
          <code value="mg/dL"/>
        </valueQuantity>
        <interpretation>
          <coding>
            <system value="http://terminology.hl7.org/CodeSystem/v3-ObservationInterpretation"/>
            <code value="N"/>
          </coding>
        </interpretation>
        <referenceRange>
          <low>
            <system value="http://unitsofmeasure.org"/>
          </low>
          <high>
            <value value="155"/>
            <system value="http://unitsofmeasure.org"/>
            <code value="mg/dL"/>
          </high>
          <type>
            <coding>
              <system value="http://terminology.hl7.org/CodeSystem/referencerange-meaning"/>
              <code value="normal"/>
            </coding>
          </type>
        </referenceRange>
      </Observation>
    </resource>
  </entry>
  <entry>
    <fullUrl value="urn:uuid:59bafb20-45b4-4b27-b6c8-7f0be201595d"/>
    <resource>
      <Observation>
        <id value="59bafb20-45b4-4b27-b6c8-7f0be201595d"/>
        <meta>
          <profile value="http://hl7.eu/fhir/laboratory/StructureDefinition/Observation-resultslab-eu-lab"/>
        </meta>
        <identifier>
          <system value="urn:oid:1.2.40.0.34.99.4613.122082.1.3.5"/>
          <value value="OBS-3-21"/>
        </identifier>
        <status value="final"/>
        <category>
          <coding>
            <system value="http://terminology.hl7.org/CodeSystem/observation-category"/>
            <code value="laboratory"/>
          </coding>
        </category>
        <code>
          <coding>
            <system value="http://loinc.org"/>
            <code value="2571-8"/>
          </coding>
        </code>
        <subject>
          <reference value="urn:uuid:718cc2e3-a4ee-41a1-a5f3-04307f76319f"/>
        </subject>
        <effectiveDateTime value="2021-06-01T13:01:00+02:00"/>
        <issued value="2021-06-01T13:01:00+02:00"/>
        <performer>
          <reference value="urn:uuid:44a3e5dc-ad19-44cf-868f-601f836b46eb"/>
          <type value="PractitionerRole"/>
        </performer>
        <valueQuantity>
          <value value="98"/>
          <system value="http://unitsofmeasure.org"/>
          <code value="mg/dL"/>
        </valueQuantity>
        <interpretation>
          <coding>
            <system value="http://terminology.hl7.org/CodeSystem/v3-ObservationInterpretation"/>
            <code value="N"/>
          </coding>
        </interpretation>
        <referenceRange>
          <low>
            <system value="http://unitsofmeasure.org"/>
          </low>
          <high>
            <value value="200"/>
            <system value="http://unitsofmeasure.org"/>
            <code value="mg/dL"/>
          </high>
          <type>
            <coding>
              <system value="http://terminology.hl7.org/CodeSystem/referencerange-meaning"/>
              <code value="normal"/>
            </coding>
          </type>
        </referenceRange>
      </Observation>
    </resource>
  </entry>
  <entry>
    <fullUrl value="urn:uuid:a8ba5342-7597-4222-bf22-d1351a4a0fdb"/>
    <resource>
      <Observation>
        <id value="a8ba5342-7597-4222-bf22-d1351a4a0fdb"/>
        <meta>
          <profile value="http://hl7.eu/fhir/laboratory/StructureDefinition/Observation-resultslab-eu-lab"/>
        </meta>
        <status value="final"/>
        <category>
          <coding>
            <system value="http://terminology.hl7.org/CodeSystem/observation-category"/>
            <code value="laboratory"/>
          </coding>
        </category>
        <category>
          <coding>
            <system value="https://termgit.elga.gv.at/CodeSystem/elga-laborparameterergaenzung"/>
            <code value="05180"/>
          </coding>
        </category>
        <code>
          <coding>
            <system value="https://termgit.elga.gv.at/CodeSystem/elga-laborparameterergaenzung"/>
            <code value="05180"/>
          </coding>
        </code>
        <subject>
          <reference value="urn:uuid:718cc2e3-a4ee-41a1-a5f3-04307f76319f"/>
        </subject>
        <effectiveDateTime value="1900-01-01">
          <extension url="http://hl7.org/fhir/StructureDefinition/data-absent-reason">
            <valueCode value="not-applicable"/>
          </extension>
        </effectiveDateTime>
        <issued value="2021-06-01T13:01:00+02:00"/>
        <performer>
          <reference value="urn:uuid:44a3e5dc-ad19-44cf-868f-601f836b46eb"/>
          <type value="PractitionerRole"/>
        </performer>
        <hasMember>
          <reference value="urn:uuid:f665eb1e-19c5-4f06-8133-1d3ca813bc94"/>
          <type value="Observation"/>
        </hasMember>
        <hasMember>
          <reference value="urn:uuid:488bd3e2-03a6-4787-b6f9-ab755fc774b2"/>
          <type value="Observation"/>
        </hasMember>
        <hasMember>
          <reference value="urn:uuid:b85476f2-11d4-41cb-9518-92d282791d60"/>
          <type value="Observation"/>
        </hasMember>
        <hasMember>
          <reference value="urn:uuid:788090e8-5467-4590-9505-1880b1c477f7"/>
          <type value="Observation"/>
        </hasMember>
        <hasMember>
          <reference value="urn:uuid:9c5af084-f931-4248-b93b-7dd60969691d"/>
          <type value="Observation"/>
        </hasMember>
      </Observation>
    </resource>
  </entry>
  <entry>
    <fullUrl value="urn:uuid:f665eb1e-19c5-4f06-8133-1d3ca813bc94"/>
    <resource>
      <Observation>
        <id value="f665eb1e-19c5-4f06-8133-1d3ca813bc94"/>
        <meta>
          <profile value="http://hl7.eu/fhir/laboratory/StructureDefinition/Observation-resultslab-eu-lab"/>
        </meta>
        <identifier>
          <system value="urn:oid:1.2.40.0.34.99.4613.122082.1.3.5"/>
          <value value="OBS-3-22"/>
        </identifier>
        <status value="final"/>
        <category>
          <coding>
            <system value="http://terminology.hl7.org/CodeSystem/observation-category"/>
            <code value="laboratory"/>
          </coding>
        </category>
        <code>
          <coding>
            <system value="http://loinc.org"/>
            <code value="1751-7"/>
          </coding>
        </code>
        <subject>
          <reference value="urn:uuid:718cc2e3-a4ee-41a1-a5f3-04307f76319f"/>
        </subject>
        <effectiveDateTime value="2021-06-01T13:01:00+02:00"/>
        <issued value="2021-06-01T13:01:00+02:00"/>
        <performer>
          <reference value="urn:uuid:44a3e5dc-ad19-44cf-868f-601f836b46eb"/>
          <type value="PractitionerRole"/>
        </performer>
        <valueQuantity>
          <value value="39.7"/>
          <system value="http://unitsofmeasure.org"/>
          <code value="g/L"/>
        </valueQuantity>
        <interpretation>
          <coding>
            <system value="http://terminology.hl7.org/CodeSystem/v3-ObservationInterpretation"/>
            <code value="L"/>
          </coding>
        </interpretation>
        <referenceRange>
          <low>
            <value value="41.9"/>
            <system value="http://unitsofmeasure.org"/>
            <code value="g/L"/>
          </low>
          <high>
            <value value="53.5"/>
            <system value="http://unitsofmeasure.org"/>
            <code value="g/L"/>
          </high>
          <type>
            <coding>
              <system value="http://terminology.hl7.org/CodeSystem/referencerange-meaning"/>
              <code value="normal"/>
            </coding>
          </type>
        </referenceRange>
      </Observation>
    </resource>
  </entry>
  <entry>
    <fullUrl value="urn:uuid:488bd3e2-03a6-4787-b6f9-ab755fc774b2"/>
    <resource>
      <Observation>
        <id value="488bd3e2-03a6-4787-b6f9-ab755fc774b2"/>
        <meta>
          <profile value="http://hl7.eu/fhir/laboratory/StructureDefinition/Observation-resultslab-eu-lab"/>
        </meta>
        <identifier>
          <system value="urn:oid:1.2.40.0.34.99.4613.122082.1.3.5"/>
          <value value="OBS-3-23"/>
        </identifier>
        <status value="final"/>
        <category>
          <coding>
            <system value="http://terminology.hl7.org/CodeSystem/observation-category"/>
            <code value="laboratory"/>
          </coding>
        </category>
        <code>
          <coding>
            <system value="http://loinc.org"/>
            <code value="2865-4"/>
          </coding>
        </code>
        <subject>
          <reference value="urn:uuid:718cc2e3-a4ee-41a1-a5f3-04307f76319f"/>
        </subject>
        <effectiveDateTime value="2021-06-01T13:01:00+02:00"/>
        <issued value="2021-06-01T13:01:00+02:00"/>
        <performer>
          <reference value="urn:uuid:44a3e5dc-ad19-44cf-868f-601f836b46eb"/>
          <type value="PractitionerRole"/>
        </performer>
        <valueQuantity>
          <value value="1.9"/>
          <system value="http://unitsofmeasure.org"/>
          <code value="g/L"/>
        </valueQuantity>
        <interpretation>
          <coding>
            <system value="http://terminology.hl7.org/CodeSystem/v3-ObservationInterpretation"/>
            <code value="N"/>
          </coding>
        </interpretation>
        <referenceRange>
          <low>
            <value value="1.0"/>
            <system value="http://unitsofmeasure.org"/>
            <code value="g/L"/>
          </low>
          <high>
            <value value="2.1"/>
            <system value="http://unitsofmeasure.org"/>
            <code value="g/L"/>
          </high>
          <type>
            <coding>
              <system value="http://terminology.hl7.org/CodeSystem/referencerange-meaning"/>
              <code value="normal"/>
            </coding>
          </type>
        </referenceRange>
      </Observation>
    </resource>
  </entry>
  <entry>
    <fullUrl value="urn:uuid:b85476f2-11d4-41cb-9518-92d282791d60"/>
    <resource>
      <Observation>
        <id value="b85476f2-11d4-41cb-9518-92d282791d60"/>
        <meta>
          <profile value="http://hl7.eu/fhir/laboratory/StructureDefinition/Observation-resultslab-eu-lab"/>
        </meta>
        <identifier>
          <system value="urn:oid:1.2.40.0.34.99.4613.122082.1.3.5"/>
          <value value="OBS-3-24"/>
        </identifier>
        <status value="final"/>
        <category>
          <coding>
            <system value="http://terminology.hl7.org/CodeSystem/observation-category"/>
            <code value="laboratory"/>
          </coding>
        </category>
        <code>
          <coding>
            <system value="http://loinc.org"/>
            <code value="2868-8"/>
          </coding>
        </code>
        <subject>
          <reference value="urn:uuid:718cc2e3-a4ee-41a1-a5f3-04307f76319f"/>
        </subject>
        <effectiveDateTime value="2021-06-01T13:01:00+02:00"/>
        <issued value="2021-06-01T13:01:00+02:00"/>
        <performer>
          <reference value="urn:uuid:44a3e5dc-ad19-44cf-868f-601f836b46eb"/>
          <type value="PractitionerRole"/>
        </performer>
        <valueQuantity>
          <value value="8.5"/>
          <system value="http://unitsofmeasure.org"/>
          <code value="g/L"/>
        </valueQuantity>
        <interpretation>
          <coding>
            <system value="http://terminology.hl7.org/CodeSystem/v3-ObservationInterpretation"/>
            <code value="H"/>
          </coding>
        </interpretation>
        <referenceRange>
          <low>
            <value value="5.1"/>
            <system value="http://unitsofmeasure.org"/>
            <code value="g/L"/>
          </low>
          <high>
            <value value="8.1"/>
            <system value="http://unitsofmeasure.org"/>
            <code value="g/L"/>
          </high>
          <type>
            <coding>
              <system value="http://terminology.hl7.org/CodeSystem/referencerange-meaning"/>
              <code value="normal"/>
            </coding>
          </type>
        </referenceRange>
      </Observation>
    </resource>
  </entry>
  <entry>
    <fullUrl value="urn:uuid:788090e8-5467-4590-9505-1880b1c477f7"/>
    <resource>
      <Observation>
        <id value="788090e8-5467-4590-9505-1880b1c477f7"/>
        <meta>
          <profile value="http://hl7.eu/fhir/laboratory/StructureDefinition/Observation-resultslab-eu-lab"/>
        </meta>
        <identifier>
          <system value="urn:oid:1.2.40.0.34.99.4613.122082.1.3.5"/>
          <value value="OBS-3-25"/>
        </identifier>
        <status value="final"/>
        <category>
          <coding>
            <system value="http://terminology.hl7.org/CodeSystem/observation-category"/>
            <code value="laboratory"/>
          </coding>
        </category>
        <code>
          <coding>
            <system value="http://loinc.org"/>
            <code value="2871-2"/>
          </coding>
        </code>
        <subject>
          <reference value="urn:uuid:718cc2e3-a4ee-41a1-a5f3-04307f76319f"/>
        </subject>
        <effectiveDateTime value="2021-06-01T13:01:00+02:00"/>
        <issued value="2021-06-01T13:01:00+02:00"/>
        <performer>
          <reference value="urn:uuid:44a3e5dc-ad19-44cf-868f-601f836b46eb"/>
          <type value="PractitionerRole"/>
        </performer>
        <valueQuantity>
          <value value="7.1"/>
          <system value="http://unitsofmeasure.org"/>
          <code value="g/L"/>
        </valueQuantity>
        <interpretation>
          <coding>
            <system value="http://terminology.hl7.org/CodeSystem/v3-ObservationInterpretation"/>
            <code value="N"/>
          </coding>
        </interpretation>
        <referenceRange>
          <low>
            <value value="4.7"/>
            <system value="http://unitsofmeasure.org"/>
            <code value="g/L"/>
          </low>
          <high>
            <value value="9.2"/>
            <system value="http://unitsofmeasure.org"/>
            <code value="g/L"/>
          </high>
          <type>
            <coding>
              <system value="http://terminology.hl7.org/CodeSystem/referencerange-meaning"/>
              <code value="normal"/>
            </coding>
          </type>
        </referenceRange>
      </Observation>
    </resource>
  </entry>
  <entry>
    <fullUrl value="urn:uuid:9c5af084-f931-4248-b93b-7dd60969691d"/>
    <resource>
      <Observation>
        <id value="9c5af084-f931-4248-b93b-7dd60969691d"/>
        <meta>
          <profile value="http://hl7.eu/fhir/laboratory/StructureDefinition/Observation-resultslab-eu-lab"/>
        </meta>
        <identifier>
          <system value="urn:oid:1.2.40.0.34.99.4613.122082.1.3.5"/>
          <value value="OBS-3-26"/>
        </identifier>
        <status value="final"/>
        <category>
          <coding>
            <system value="http://terminology.hl7.org/CodeSystem/observation-category"/>
            <code value="laboratory"/>
          </coding>
        </category>
        <code>
          <coding>
            <system value="http://loinc.org"/>
            <code value="2874-6"/>
          </coding>
        </code>
        <subject>
          <reference value="urn:uuid:718cc2e3-a4ee-41a1-a5f3-04307f76319f"/>
        </subject>
        <effectiveDateTime value="2021-06-01T13:01:00+02:00"/>
        <issued value="2021-06-01T13:01:00+02:00"/>
        <performer>
          <reference value="urn:uuid:44a3e5dc-ad19-44cf-868f-601f836b46eb"/>
          <type value="PractitionerRole"/>
        </performer>
        <valueQuantity>
          <value value="8.5"/>
          <system value="http://unitsofmeasure.org"/>
          <code value="g/L"/>
        </valueQuantity>
        <interpretation>
          <coding>
            <system value="http://terminology.hl7.org/CodeSystem/v3-ObservationInterpretation"/>
            <code value="N"/>
          </coding>
        </interpretation>
        <referenceRange>
          <low>
            <value value="4.7"/>
            <system value="http://unitsofmeasure.org"/>
            <code value="g/L"/>
          </low>
          <high>
            <value value="12.2"/>
            <system value="http://unitsofmeasure.org"/>
            <code value="g/L"/>
          </high>
          <type>
            <coding>
              <system value="http://terminology.hl7.org/CodeSystem/referencerange-meaning"/>
              <code value="normal"/>
            </coding>
          </type>
        </referenceRange>
      </Observation>
    </resource>
  </entry>
  <entry>
    <fullUrl value="urn:uuid:acfff713-1882-463f-bbba-9822082ce595"/>
    <resource>
      <Observation>
        <id value="acfff713-1882-463f-bbba-9822082ce595"/>
        <meta>
          <profile value="http://hl7.eu/fhir/laboratory/StructureDefinition/Observation-resultslab-eu-lab"/>
        </meta>
        <status value="final"/>
        <category>
          <coding>
            <system value="http://terminology.hl7.org/CodeSystem/observation-category"/>
            <code value="laboratory"/>
          </coding>
        </category>
        <category>
          <coding>
            <system value="https://termgit.elga.gv.at/CodeSystem/elga-laborparameterergaenzung"/>
            <code value="06330"/>
          </coding>
        </category>
        <code>
          <coding>
            <system value="https://termgit.elga.gv.at/CodeSystem/elga-laborparameterergaenzung"/>
            <code value="06330"/>
          </coding>
        </code>
        <subject>
          <reference value="urn:uuid:718cc2e3-a4ee-41a1-a5f3-04307f76319f"/>
        </subject>
        <effectiveDateTime value="1900-01-01">
          <extension url="http://hl7.org/fhir/StructureDefinition/data-absent-reason">
            <valueCode value="not-applicable"/>
          </extension>
        </effectiveDateTime>
        <issued value="2021-06-01T13:01:00+02:00"/>
        <performer>
          <reference value="urn:uuid:44a3e5dc-ad19-44cf-868f-601f836b46eb"/>
          <type value="PractitionerRole"/>
        </performer>
        <hasMember>
          <reference value="urn:uuid:a34d76d6-0637-434f-89f8-50f900447f33"/>
          <type value="Observation"/>
        </hasMember>
        <hasMember>
          <reference value="urn:uuid:99f680c8-711a-41cd-8938-7b122e6c53e6"/>
          <type value="Observation"/>
        </hasMember>
        <hasMember>
          <reference value="urn:uuid:15ac1fd3-5d78-48d8-aa97-d8faf4adf233"/>
          <type value="Observation"/>
        </hasMember>
        <hasMember>
          <reference value="urn:uuid:878ef39f-7dc9-475f-afc0-90497a84e467"/>
          <type value="Observation"/>
        </hasMember>
        <hasMember>
          <reference value="urn:uuid:a89bfdb3-8ec5-4eca-9315-e66bdfa8415c"/>
          <type value="Observation"/>
        </hasMember>
        <hasMember>
          <reference value="urn:uuid:6246e419-e19e-4f83-8302-31bb60e3b17f"/>
          <type value="Observation"/>
        </hasMember>
      </Observation>
    </resource>
  </entry>
  <entry>
    <fullUrl value="urn:uuid:a34d76d6-0637-434f-89f8-50f900447f33"/>
    <resource>
      <Observation>
        <id value="a34d76d6-0637-434f-89f8-50f900447f33"/>
        <meta>
          <profile value="http://hl7.eu/fhir/laboratory/StructureDefinition/Observation-resultslab-eu-lab"/>
        </meta>
        <identifier>
          <system value="urn:oid:1.2.40.0.34.99.4613.122082.1.3.5"/>
          <value value="OBS-4-1"/>
        </identifier>
        <status value="final"/>
        <category>
          <coding>
            <system value="http://terminology.hl7.org/CodeSystem/observation-category"/>
            <code value="laboratory"/>
          </coding>
        </category>
        <code>
          <coding>
            <system value="http://loinc.org"/>
            <code value="3016-3"/>
          </coding>
        </code>
        <subject>
          <reference value="urn:uuid:718cc2e3-a4ee-41a1-a5f3-04307f76319f"/>
        </subject>
        <effectiveDateTime value="2021-06-01T13:01:00+02:00"/>
        <issued value="2021-06-01T13:01:00+02:00"/>
        <performer>
          <reference value="urn:uuid:44a3e5dc-ad19-44cf-868f-601f836b46eb"/>
          <type value="PractitionerRole"/>
        </performer>
        <valueQuantity>
          <value value="1.00"/>
          <system value="http://unitsofmeasure.org"/>
          <code value="u[IU]/mL"/>
        </valueQuantity>
        <interpretation>
          <coding>
            <system value="http://terminology.hl7.org/CodeSystem/v3-ObservationInterpretation"/>
            <code value="N"/>
          </coding>
        </interpretation>
        <referenceRange>
          <low>
            <value value="0.49"/>
            <system value="http://unitsofmeasure.org"/>
            <code value="u[IU]/mL"/>
          </low>
          <high>
            <value value="4.67"/>
            <system value="http://unitsofmeasure.org"/>
            <code value="u[IU]/mL"/>
          </high>
          <type>
            <coding>
              <system value="http://terminology.hl7.org/CodeSystem/referencerange-meaning"/>
              <code value="normal"/>
            </coding>
          </type>
        </referenceRange>
      </Observation>
    </resource>
  </entry>
  <entry>
    <fullUrl value="urn:uuid:99f680c8-711a-41cd-8938-7b122e6c53e6"/>
    <resource>
      <Observation>
        <id value="99f680c8-711a-41cd-8938-7b122e6c53e6"/>
        <meta>
          <profile value="http://hl7.eu/fhir/laboratory/StructureDefinition/Observation-resultslab-eu-lab"/>
        </meta>
        <identifier>
          <system value="urn:oid:1.2.40.0.34.99.4613.122082.1.3.5"/>
          <value value="OBS-4-2"/>
        </identifier>
        <status value="final"/>
        <category>
          <coding>
            <system value="http://terminology.hl7.org/CodeSystem/observation-category"/>
            <code value="laboratory"/>
          </coding>
        </category>
        <code>
          <coding>
            <system value="http://loinc.org"/>
            <code value="3026-2"/>
          </coding>
        </code>
        <subject>
          <reference value="urn:uuid:718cc2e3-a4ee-41a1-a5f3-04307f76319f"/>
        </subject>
        <effectiveDateTime value="2021-06-01T13:01:00+02:00"/>
        <issued value="2021-06-01T13:01:00+02:00"/>
        <performer>
          <reference value="urn:uuid:44a3e5dc-ad19-44cf-868f-601f836b46eb"/>
          <type value="PractitionerRole"/>
        </performer>
        <valueQuantity>
          <value value="1.00"/>
          <system value="http://unitsofmeasure.org"/>
          <code value="ng/mL"/>
        </valueQuantity>
        <interpretation>
          <coding>
            <system value="http://terminology.hl7.org/CodeSystem/v3-ObservationInterpretation"/>
            <code value="LL"/>
          </coding>
        </interpretation>
        <referenceRange>
          <low>
            <value value="57.92"/>
            <system value="http://unitsofmeasure.org"/>
            <code value="ng/mL"/>
          </low>
          <high>
            <value value="154.44"/>
            <system value="http://unitsofmeasure.org"/>
            <code value="ng/mL"/>
          </high>
          <type>
            <coding>
              <system value="http://terminology.hl7.org/CodeSystem/referencerange-meaning"/>
              <code value="normal"/>
            </coding>
          </type>
        </referenceRange>
      </Observation>
    </resource>
  </entry>
  <entry>
    <fullUrl value="urn:uuid:15ac1fd3-5d78-48d8-aa97-d8faf4adf233"/>
    <resource>
      <Observation>
        <id value="15ac1fd3-5d78-48d8-aa97-d8faf4adf233"/>
        <meta>
          <profile value="http://hl7.eu/fhir/laboratory/StructureDefinition/Observation-resultslab-eu-lab"/>
        </meta>
        <identifier>
          <system value="urn:oid:1.2.40.0.34.99.4613.122082.1.3.5"/>
          <value value="OBS-4-3"/>
        </identifier>
        <status value="final"/>
        <category>
          <coding>
            <system value="http://terminology.hl7.org/CodeSystem/observation-category"/>
            <code value="laboratory"/>
          </coding>
        </category>
        <code>
          <coding>
            <system value="http://loinc.org"/>
            <code value="3024-7"/>
          </coding>
        </code>
        <subject>
          <reference value="urn:uuid:718cc2e3-a4ee-41a1-a5f3-04307f76319f"/>
        </subject>
        <effectiveDateTime value="2021-06-01T13:01:00+02:00"/>
        <issued value="2021-06-01T13:01:00+02:00"/>
        <performer>
          <reference value="urn:uuid:44a3e5dc-ad19-44cf-868f-601f836b46eb"/>
          <type value="PractitionerRole"/>
        </performer>
        <valueQuantity>
          <value value="1.00"/>
          <system value="http://unitsofmeasure.org"/>
          <code value="ng/dL"/>
        </valueQuantity>
        <interpretation>
          <coding>
            <system value="http://terminology.hl7.org/CodeSystem/v3-ObservationInterpretation"/>
            <code value="N"/>
          </coding>
        </interpretation>
        <referenceRange>
          <low>
            <value value="0.71"/>
            <system value="http://unitsofmeasure.org"/>
            <code value="ng/dL"/>
          </low>
          <high>
            <value value="1.85"/>
            <system value="http://unitsofmeasure.org"/>
            <code value="ng/dL"/>
          </high>
          <type>
            <coding>
              <system value="http://terminology.hl7.org/CodeSystem/referencerange-meaning"/>
              <code value="normal"/>
            </coding>
          </type>
        </referenceRange>
      </Observation>
    </resource>
  </entry>
  <entry>
    <fullUrl value="urn:uuid:878ef39f-7dc9-475f-afc0-90497a84e467"/>
    <resource>
      <Observation>
        <id value="878ef39f-7dc9-475f-afc0-90497a84e467"/>
        <meta>
          <profile value="http://hl7.eu/fhir/laboratory/StructureDefinition/Observation-resultslab-eu-lab"/>
        </meta>
        <identifier>
          <system value="urn:oid:1.2.40.0.34.99.4613.122082.1.3.5"/>
          <value value="OBS-4-4"/>
        </identifier>
        <status value="final"/>
        <category>
          <coding>
            <system value="http://terminology.hl7.org/CodeSystem/observation-category"/>
            <code value="laboratory"/>
          </coding>
        </category>
        <code>
          <coding>
            <system value="http://loinc.org"/>
            <code value="3053-6"/>
          </coding>
        </code>
        <subject>
          <reference value="urn:uuid:718cc2e3-a4ee-41a1-a5f3-04307f76319f"/>
        </subject>
        <effectiveDateTime value="2021-06-01T13:01:00+02:00"/>
        <issued value="2021-06-01T13:01:00+02:00"/>
        <performer>
          <reference value="urn:uuid:44a3e5dc-ad19-44cf-868f-601f836b46eb"/>
          <type value="PractitionerRole"/>
        </performer>
        <valueQuantity>
          <value value="1.00"/>
          <system value="http://unitsofmeasure.org"/>
          <code value="ng/mL"/>
        </valueQuantity>
        <interpretation>
          <coding>
            <system value="http://terminology.hl7.org/CodeSystem/v3-ObservationInterpretation"/>
            <code value="N"/>
          </coding>
        </interpretation>
        <referenceRange>
          <low>
            <value value="0.45"/>
            <system value="http://unitsofmeasure.org"/>
            <code value="ng/mL"/>
          </low>
          <high>
            <value value="1.37"/>
            <system value="http://unitsofmeasure.org"/>
            <code value="ng/mL"/>
          </high>
          <type>
            <coding>
              <system value="http://terminology.hl7.org/CodeSystem/referencerange-meaning"/>
              <code value="normal"/>
            </coding>
          </type>
        </referenceRange>
      </Observation>
    </resource>
  </entry>
  <entry>
    <fullUrl value="urn:uuid:a89bfdb3-8ec5-4eca-9315-e66bdfa8415c"/>
    <resource>
      <Observation>
        <id value="a89bfdb3-8ec5-4eca-9315-e66bdfa8415c"/>
        <meta>
          <profile value="http://hl7.eu/fhir/laboratory/StructureDefinition/Observation-resultslab-eu-lab"/>
        </meta>
        <identifier>
          <system value="urn:oid:1.2.40.0.34.99.4613.122082.1.3.5"/>
          <value value="OBS-4-5"/>
        </identifier>
        <status value="final"/>
        <category>
          <coding>
            <system value="http://terminology.hl7.org/CodeSystem/observation-category"/>
            <code value="laboratory"/>
          </coding>
        </category>
        <code>
          <coding>
            <system value="http://loinc.org"/>
            <code value="3051-0"/>
          </coding>
        </code>
        <subject>
          <reference value="urn:uuid:718cc2e3-a4ee-41a1-a5f3-04307f76319f"/>
        </subject>
        <effectiveDateTime value="2021-06-01T13:01:00+02:00"/>
        <issued value="2021-06-01T13:01:00+02:00"/>
        <performer>
          <reference value="urn:uuid:44a3e5dc-ad19-44cf-868f-601f836b46eb"/>
          <type value="PractitionerRole"/>
        </performer>
        <valueQuantity>
          <value value="1.00"/>
          <system value="http://unitsofmeasure.org"/>
          <code value="pg/mL"/>
        </valueQuantity>
        <interpretation>
          <coding>
            <system value="http://terminology.hl7.org/CodeSystem/v3-ObservationInterpretation"/>
            <code value="L"/>
          </coding>
        </interpretation>
        <referenceRange>
          <low>
            <value value="1.45"/>
            <system value="http://unitsofmeasure.org"/>
            <code value="pg/mL"/>
          </low>
          <high>
            <value value="3.48"/>
            <system value="http://unitsofmeasure.org"/>
            <code value="pg/mL"/>
          </high>
          <type>
            <coding>
              <system value="http://terminology.hl7.org/CodeSystem/referencerange-meaning"/>
              <code value="normal"/>
            </coding>
          </type>
        </referenceRange>
      </Observation>
    </resource>
  </entry>
  <entry>
    <fullUrl value="urn:uuid:6246e419-e19e-4f83-8302-31bb60e3b17f"/>
    <resource>
      <Observation>
        <id value="6246e419-e19e-4f83-8302-31bb60e3b17f"/>
        <meta>
          <profile value="http://hl7.eu/fhir/laboratory/StructureDefinition/Observation-resultslab-eu-lab"/>
        </meta>
        <identifier>
          <system value="urn:oid:1.2.40.0.34.99.4613.122082.1.3.5"/>
          <value value="OBS-4-6"/>
        </identifier>
        <status value="preliminary"/>
        <category>
          <coding>
            <system value="http://terminology.hl7.org/CodeSystem/observation-category"/>
            <code value="laboratory"/>
          </coding>
        </category>
        <code>
          <coding>
            <system value="http://loinc.org"/>
            <code value="20568-2"/>
          </coding>
        </code>
        <subject>
          <reference value="urn:uuid:718cc2e3-a4ee-41a1-a5f3-04307f76319f"/>
        </subject>
        <effectiveDateTime>
          <extension url="http://hl7.org/fhir/StructureDefinition/data-absent-reason">
            <valueCode value="unknown"/>
          </extension>
        </effectiveDateTime>
        <issued value="2021-06-01T13:01:00+02:00"/>
        <performer>
          <reference value="urn:uuid:44a3e5dc-ad19-44cf-868f-601f836b46eb"/>
          <type value="PractitionerRole"/>
        </performer>
        <dataAbsentReason>
          <coding>
            <system value="http://terminology.hl7.org/CodeSystem/data-absent-reason"/>
            <code value="temp-unknown"/>
          </coding>
        </dataAbsentReason>
      </Observation>
    </resource>
  </entry>
  <entry>
    <fullUrl value="urn:uuid:3fa2a893-37d5-4b07-adbb-18bc788a2ae5"/>
    <resource>
      <Observation>
        <id value="3fa2a893-37d5-4b07-adbb-18bc788a2ae5"/>
        <meta>
          <profile value="http://hl7.eu/fhir/laboratory/StructureDefinition/Observation-resultslab-eu-lab"/>
        </meta>
        <status value="final"/>
        <category>
          <coding>
            <system value="http://terminology.hl7.org/CodeSystem/observation-category"/>
            <code value="laboratory"/>
          </coding>
        </category>
        <category>
          <coding>
            <system value="https://termgit.elga.gv.at/CodeSystem/elga-laborparameterergaenzung"/>
            <code value="06340"/>
          </coding>
        </category>
        <code>
          <coding>
            <system value="https://termgit.elga.gv.at/CodeSystem/elga-laborparameterergaenzung"/>
            <code value="06340"/>
          </coding>
        </code>
        <subject>
          <reference value="urn:uuid:718cc2e3-a4ee-41a1-a5f3-04307f76319f"/>
        </subject>
        <effectiveDateTime value="1900-01-01">
          <extension url="http://hl7.org/fhir/StructureDefinition/data-absent-reason">
            <valueCode value="not-applicable"/>
          </extension>
        </effectiveDateTime>
        <issued value="2021-06-01T13:01:00+02:00"/>
        <performer>
          <reference value="urn:uuid:44a3e5dc-ad19-44cf-868f-601f836b46eb"/>
          <type value="PractitionerRole"/>
        </performer>
        <hasMember>
          <reference value="urn:uuid:889adf03-1983-4191-ad8f-b5db61d5b694"/>
          <type value="Observation"/>
        </hasMember>
        <hasMember>
          <reference value="urn:uuid:0650b354-0b5e-4b18-bc23-1f09a40fc57b"/>
          <type value="Observation"/>
        </hasMember>
        <hasMember>
          <reference value="urn:uuid:0512e3ba-994b-4bf9-bf5c-4b936d894d92"/>
          <type value="Observation"/>
        </hasMember>
      </Observation>
    </resource>
  </entry>
  <entry>
    <fullUrl value="urn:uuid:889adf03-1983-4191-ad8f-b5db61d5b694"/>
    <resource>
      <Observation>
        <id value="889adf03-1983-4191-ad8f-b5db61d5b694"/>
        <meta>
          <profile value="http://hl7.eu/fhir/laboratory/StructureDefinition/Observation-resultslab-eu-lab"/>
        </meta>
        <identifier>
          <system value="urn:oid:1.2.40.0.34.99.4613.122082.1.3.5"/>
          <value value="OBS-5-1"/>
        </identifier>
        <status value="final"/>
        <category>
          <coding>
            <system value="http://terminology.hl7.org/CodeSystem/observation-category"/>
            <code value="laboratory"/>
          </coding>
        </category>
        <code>
          <coding>
            <system value="http://loinc.org"/>
            <code value="2284-8"/>
          </coding>
        </code>
        <subject>
          <reference value="urn:uuid:718cc2e3-a4ee-41a1-a5f3-04307f76319f"/>
        </subject>
        <effectiveDateTime value="2021-06-01T13:01:00+02:00"/>
        <issued value="2021-06-01T13:01:00+02:00"/>
        <performer>
          <reference value="urn:uuid:44a3e5dc-ad19-44cf-868f-601f836b46eb"/>
          <type value="PractitionerRole"/>
        </performer>
        <valueQuantity>
          <value value="7.3"/>
          <system value="http://unitsofmeasure.org"/>
          <code value="ng/mL"/>
        </valueQuantity>
        <interpretation>
          <coding>
            <system value="http://terminology.hl7.org/CodeSystem/v3-ObservationInterpretation"/>
            <code value="N"/>
          </coding>
        </interpretation>
        <referenceRange>
          <low>
            <value value="4.6"/>
            <system value="http://unitsofmeasure.org"/>
            <code value="ng/mL"/>
          </low>
          <high>
            <value value="18.7"/>
            <system value="http://unitsofmeasure.org"/>
            <code value="ng/mL"/>
          </high>
          <type>
            <coding>
              <system value="http://terminology.hl7.org/CodeSystem/referencerange-meaning"/>
              <code value="normal"/>
            </coding>
          </type>
        </referenceRange>
      </Observation>
    </resource>
  </entry>
  <entry>
    <fullUrl value="urn:uuid:0650b354-0b5e-4b18-bc23-1f09a40fc57b"/>
    <resource>
      <Observation>
        <id value="0650b354-0b5e-4b18-bc23-1f09a40fc57b"/>
        <meta>
          <profile value="http://hl7.eu/fhir/laboratory/StructureDefinition/Observation-resultslab-eu-lab"/>
        </meta>
        <identifier>
          <system value="urn:oid:1.2.40.0.34.99.4613.122082.1.3.5"/>
          <value value="OBS-5-2"/>
        </identifier>
        <status value="final"/>
        <category>
          <coding>
            <system value="http://terminology.hl7.org/CodeSystem/observation-category"/>
            <code value="laboratory"/>
          </coding>
        </category>
        <code>
          <coding>
            <system value="http://loinc.org"/>
            <code value="2132-9"/>
          </coding>
        </code>
        <subject>
          <reference value="urn:uuid:718cc2e3-a4ee-41a1-a5f3-04307f76319f"/>
        </subject>
        <effectiveDateTime value="2021-06-01T13:01:00+02:00"/>
        <issued value="2021-06-01T13:01:00+02:00"/>
        <performer>
          <reference value="urn:uuid:44a3e5dc-ad19-44cf-868f-601f836b46eb"/>
          <type value="PractitionerRole"/>
        </performer>
        <valueQuantity>
          <value value="366"/>
          <system value="http://unitsofmeasure.org"/>
          <code value="pmol/L"/>
        </valueQuantity>
        <interpretation>
          <coding>
            <system value="http://terminology.hl7.org/CodeSystem/v3-ObservationInterpretation"/>
            <code value="N"/>
          </coding>
        </interpretation>
        <referenceRange>
          <low>
            <value value="141"/>
            <system value="http://unitsofmeasure.org"/>
            <code value="pmol/L"/>
          </low>
          <high>
            <value value="489"/>
            <system value="http://unitsofmeasure.org"/>
            <code value="pmol/L"/>
          </high>
          <type>
            <coding>
              <system value="http://terminology.hl7.org/CodeSystem/referencerange-meaning"/>
              <code value="normal"/>
            </coding>
          </type>
        </referenceRange>
      </Observation>
    </resource>
  </entry>
  <entry>
    <fullUrl value="urn:uuid:0512e3ba-994b-4bf9-bf5c-4b936d894d92"/>
    <resource>
      <Observation>
        <id value="0512e3ba-994b-4bf9-bf5c-4b936d894d92"/>
        <meta>
          <profile value="http://hl7.eu/fhir/laboratory/StructureDefinition/Observation-resultslab-eu-lab"/>
        </meta>
        <identifier>
          <system value="urn:oid:1.2.40.0.34.99.4613.122082.1.3.5"/>
          <value value="OBS-5-3"/>
        </identifier>
        <status value="final"/>
        <category>
          <coding>
            <system value="http://terminology.hl7.org/CodeSystem/observation-category"/>
            <code value="laboratory"/>
          </coding>
        </category>
        <code>
          <coding>
            <code value="VB15"/>
          </coding>
          <text value="Vitamin B15"/>
        </code>
        <subject>
          <reference value="urn:uuid:718cc2e3-a4ee-41a1-a5f3-04307f76319f"/>
        </subject>
        <effectiveDateTime value="2021-06-01T13:01:00+02:00"/>
        <issued value="2021-06-01T13:01:00+02:00"/>
        <performer>
          <reference value="urn:uuid:44a3e5dc-ad19-44cf-868f-601f836b46eb"/>
          <type value="PractitionerRole"/>
        </performer>
        <valueQuantity>
          <value value="390"/>
          <system value="http://unitsofmeasure.org"/>
          <code value="pmol/L"/>
        </valueQuantity>
        <interpretation>
          <coding>
            <system value="http://terminology.hl7.org/CodeSystem/v3-ObservationInterpretation"/>
            <code value="N"/>
          </coding>
        </interpretation>
        <referenceRange>
          <low>
            <value value="290"/>
            <system value="http://unitsofmeasure.org"/>
            <code value="pmol/L"/>
          </low>
          <high>
            <value value="490"/>
            <system value="http://unitsofmeasure.org"/>
            <code value="pmol/L"/>
          </high>
          <type>
            <coding>
              <system value="http://terminology.hl7.org/CodeSystem/referencerange-meaning"/>
              <code value="normal"/>
            </coding>
          </type>
        </referenceRange>
      </Observation>
    </resource>
  </entry>
  <entry>
    <fullUrl value="urn:uuid:79a4f6e1-cb8e-4760-810a-a796ef73ca1f"/>
    <resource>
      <Observation>
        <id value="79a4f6e1-cb8e-4760-810a-a796ef73ca1f"/>
        <meta>
          <profile value="http://hl7.eu/fhir/laboratory/StructureDefinition/Observation-resultslab-eu-lab"/>
        </meta>
        <status value="final"/>
        <category>
          <coding>
            <system value="http://terminology.hl7.org/CodeSystem/observation-category"/>
            <code value="laboratory"/>
          </coding>
        </category>
        <category>
          <coding>
            <system value="https://termgit.elga.gv.at/CodeSystem/elga-laborparameterergaenzung"/>
            <code value="12010"/>
          </coding>
        </category>
        <code>
          <coding>
            <system value="https://termgit.elga.gv.at/CodeSystem/elga-laborparameterergaenzung"/>
            <code value="12010"/>
          </coding>
        </code>
        <subject>
          <reference value="urn:uuid:718cc2e3-a4ee-41a1-a5f3-04307f76319f"/>
        </subject>
        <effectiveDateTime value="1900-01-01">
          <extension url="http://hl7.org/fhir/StructureDefinition/data-absent-reason">
            <valueCode value="not-applicable"/>
          </extension>
        </effectiveDateTime>
        <issued value="2021-06-01T13:01:00+02:00"/>
        <performer>
          <reference value="urn:uuid:44a3e5dc-ad19-44cf-868f-601f836b46eb"/>
          <type value="PractitionerRole"/>
        </performer>
        <hasMember>
          <reference value="urn:uuid:45fbf841-593d-418d-ad15-74d219e42d03"/>
          <type value="Observation"/>
        </hasMember>
        <hasMember>
          <reference value="urn:uuid:b2508715-dc2e-463c-aa4b-e34ade673d80"/>
          <type value="Observation"/>
        </hasMember>
      </Observation>
    </resource>
  </entry>
  <entry>
    <fullUrl value="urn:uuid:45fbf841-593d-418d-ad15-74d219e42d03"/>
    <resource>
      <Observation>
        <id value="45fbf841-593d-418d-ad15-74d219e42d03"/>
        <meta>
          <profile value="http://hl7.eu/fhir/laboratory/StructureDefinition/Observation-resultslab-eu-lab"/>
        </meta>
        <identifier>
          <system value="urn:oid:1.2.40.0.34.99.4613.122082.1.3.5"/>
          <value value="OBS-6-1"/>
        </identifier>
        <status value="final"/>
        <category>
          <coding>
            <system value="http://terminology.hl7.org/CodeSystem/observation-category"/>
            <code value="laboratory"/>
          </coding>
        </category>
        <code>
          <coding>
            <system value="http://loinc.org"/>
            <code value="37989-1"/>
          </coding>
        </code>
        <subject>
          <reference value="urn:uuid:718cc2e3-a4ee-41a1-a5f3-04307f76319f"/>
        </subject>
        <effectiveDateTime value="2021-06-01T13:01:00+02:00"/>
        <issued value="2021-06-01T13:01:00+02:00"/>
        <performer>
          <reference value="urn:uuid:44a3e5dc-ad19-44cf-868f-601f836b46eb"/>
          <type value="PractitionerRole"/>
        </performer>
        <valueCodeableConcept>
          <coding>
            <system value="http://snomed.info/sct"/>
            <code value="260415000"/>
          </coding>
        </valueCodeableConcept>
      </Observation>
    </resource>
  </entry>
  <entry>
    <fullUrl value="urn:uuid:b2508715-dc2e-463c-aa4b-e34ade673d80"/>
    <resource>
      <Observation>
        <id value="b2508715-dc2e-463c-aa4b-e34ade673d80"/>
        <meta>
          <profile value="http://hl7.eu/fhir/laboratory/StructureDefinition/Observation-resultslab-eu-lab"/>
        </meta>
        <identifier>
          <system value="urn:oid:1.2.40.0.34.99.4613.122082.1.3.5"/>
          <value value="OBS-6-2"/>
        </identifier>
        <status value="final"/>
        <category>
          <coding>
            <system value="http://terminology.hl7.org/CodeSystem/observation-category"/>
            <code value="laboratory"/>
          </coding>
        </category>
        <code>
          <coding>
            <system value="http://loinc.org"/>
            <code value="23800-6"/>
          </coding>
        </code>
        <subject>
          <reference value="urn:uuid:718cc2e3-a4ee-41a1-a5f3-04307f76319f"/>
        </subject>
        <effectiveDateTime value="2021-06-01T13:01:00+02:00"/>
        <issued value="2021-06-01T13:01:00+02:00"/>
        <performer>
          <reference value="urn:uuid:44a3e5dc-ad19-44cf-868f-601f836b46eb"/>
          <type value="PractitionerRole"/>
        </performer>
        <valueCodeableConcept>
          <coding>
            <system value="http://snomed.info/sct"/>
            <code value="260373001"/>
          </coding>
        </valueCodeableConcept>
        <interpretation>
          <coding>
            <system value="http://terminology.hl7.org/CodeSystem/v3-ObservationInterpretation"/>
            <code value="A"/>
          </coding>
        </interpretation>
      </Observation>
    </resource>
  </entry>
  <entry>
    <fullUrl value="urn:uuid:691077ee-c2ae-4283-8088-718c7cbea23a"/>
    <resource>
      <Observation>
        <id value="691077ee-c2ae-4283-8088-718c7cbea23a"/>
        <meta>
          <profile value="http://hl7.eu/fhir/laboratory/StructureDefinition/Observation-resultslab-eu-lab"/>
        </meta>
        <status value="final"/>
        <category>
          <coding>
            <system value="http://terminology.hl7.org/CodeSystem/observation-category"/>
            <code value="laboratory"/>
          </coding>
        </category>
        <category>
          <coding>
            <system value="https://termgit.elga.gv.at/CodeSystem/elga-laborparameterergaenzung"/>
            <code value="12020"/>
          </coding>
        </category>
        <code>
          <coding>
            <system value="https://termgit.elga.gv.at/CodeSystem/elga-laborparameterergaenzung"/>
            <code value="12020"/>
          </coding>
        </code>
        <subject>
          <reference value="urn:uuid:718cc2e3-a4ee-41a1-a5f3-04307f76319f"/>
        </subject>
        <effectiveDateTime value="1900-01-01">
          <extension url="http://hl7.org/fhir/StructureDefinition/data-absent-reason">
            <valueCode value="not-applicable"/>
          </extension>
        </effectiveDateTime>
        <issued value="2021-06-01T13:01:00+02:00"/>
        <performer>
          <reference value="urn:uuid:44a3e5dc-ad19-44cf-868f-601f836b46eb"/>
          <type value="PractitionerRole"/>
        </performer>
        <hasMember>
          <reference value="urn:uuid:7a58ecbc-cd54-4be4-98a6-16d2da789721"/>
          <type value="Observation"/>
        </hasMember>
        <hasMember>
          <reference value="urn:uuid:59fa8973-6e04-4809-bb61-7439ac206d66"/>
          <type value="Observation"/>
        </hasMember>
        <hasMember>
          <reference value="urn:uuid:053b6dca-21fb-4595-9dcc-5a67a8b9481f"/>
          <type value="Observation"/>
        </hasMember>
      </Observation>
    </resource>
  </entry>
  <entry>
    <fullUrl value="urn:uuid:7a58ecbc-cd54-4be4-98a6-16d2da789721"/>
    <resource>
      <Observation>
        <id value="7a58ecbc-cd54-4be4-98a6-16d2da789721"/>
        <meta>
          <profile value="http://hl7.eu/fhir/laboratory/StructureDefinition/Observation-resultslab-eu-lab"/>
        </meta>
        <identifier>
          <system value="urn:oid:1.2.40.0.34.99.4613.122082.1.3.5"/>
          <value value="OBS-7-1"/>
        </identifier>
        <status value="final"/>
        <category>
          <coding>
            <system value="http://terminology.hl7.org/CodeSystem/observation-category"/>
            <code value="laboratory"/>
          </coding>
        </category>
        <code>
          <coding>
            <system value="http://loinc.org"/>
            <code value="6212-5"/>
          </coding>
        </code>
        <subject>
          <reference value="urn:uuid:718cc2e3-a4ee-41a1-a5f3-04307f76319f"/>
        </subject>
        <effectiveDateTime value="2021-06-01T13:01:00+02:00"/>
        <issued value="2021-06-01T13:01:00+02:00"/>
        <performer>
          <reference value="urn:uuid:44a3e5dc-ad19-44cf-868f-601f836b46eb"/>
          <type value="PractitionerRole"/>
        </performer>
        <valueRange>
          <low>
            <value value="0"/>
            <system value="http://unitsofmeasure.org"/>
            <code value="kU/L"/>
          </low>
          <high>
            <value value="0.35"/>
            <system value="http://unitsofmeasure.org"/>
            <code value="kU/L"/>
          </high>
        </valueRange>
        <interpretation>
          <coding>
            <system value="http://terminology.hl7.org/CodeSystem/v3-ObservationInterpretation"/>
            <code value="N"/>
          </coding>
        </interpretation>
        <referenceRange>
          <low>
            <value value="0"/>
            <system value="http://unitsofmeasure.org"/>
            <code value="kU/L"/>
          </low>
          <high>
            <value value="0.35"/>
            <system value="http://unitsofmeasure.org"/>
            <code value="kU/L"/>
          </high>
          <type>
            <coding>
              <system value="http://terminology.hl7.org/CodeSystem/referencerange-meaning"/>
              <code value="normal"/>
            </coding>
          </type>
        </referenceRange>
      </Observation>
    </resource>
  </entry>
  <entry>
    <fullUrl value="urn:uuid:59fa8973-6e04-4809-bb61-7439ac206d66"/>
    <resource>
      <Observation>
        <id value="59fa8973-6e04-4809-bb61-7439ac206d66"/>
        <meta>
          <profile value="http://hl7.eu/fhir/laboratory/StructureDefinition/Observation-resultslab-eu-lab"/>
        </meta>
        <identifier>
          <system value="urn:oid:1.2.40.0.34.99.4613.122082.1.3.5"/>
          <value value="OBS-7-2"/>
        </identifier>
        <status value="final"/>
        <category>
          <coding>
            <system value="http://terminology.hl7.org/CodeSystem/observation-category"/>
            <code value="laboratory"/>
          </coding>
        </category>
        <code>
          <coding>
            <system value="http://loinc.org"/>
            <code value="15642-2"/>
          </coding>
        </code>
        <subject>
          <reference value="urn:uuid:718cc2e3-a4ee-41a1-a5f3-04307f76319f"/>
        </subject>
        <effectiveDateTime value="2021-06-01T13:01:00+02:00"/>
        <issued value="2021-06-01T13:01:00+02:00"/>
        <performer>
          <reference value="urn:uuid:44a3e5dc-ad19-44cf-868f-601f836b46eb"/>
          <type value="PractitionerRole"/>
        </performer>
        <valueQuantity>
          <value value="0"/>
          <system value="http://unitsofmeasure.org"/>
          <code value="{RAST-Kl}"/>
        </valueQuantity>
      </Observation>
    </resource>
  </entry>
  <entry>
    <fullUrl value="urn:uuid:053b6dca-21fb-4595-9dcc-5a67a8b9481f"/>
    <resource>
      <Observation>
        <id value="053b6dca-21fb-4595-9dcc-5a67a8b9481f"/>
        <meta>
          <profile value="http://hl7.eu/fhir/laboratory/StructureDefinition/Observation-resultslab-eu-lab"/>
        </meta>
        <identifier>
          <system value="urn:oid:1.2.40.0.34.99.4613.122082.1.3.5"/>
          <value value="OBS-7-3"/>
        </identifier>
        <status value="final"/>
        <category>
          <coding>
            <system value="http://terminology.hl7.org/CodeSystem/observation-category"/>
            <code value="laboratory"/>
          </coding>
        </category>
        <code>
          <coding>
            <system value="http://loinc.org"/>
            <code value="6020-2"/>
          </coding>
        </code>
        <subject>
          <reference value="urn:uuid:718cc2e3-a4ee-41a1-a5f3-04307f76319f"/>
        </subject>
        <effectiveDateTime value="2021-06-01T13:01:00+02:00"/>
        <issued value="2021-06-01T13:01:00+02:00"/>
        <performer>
          <reference value="urn:uuid:44a3e5dc-ad19-44cf-868f-601f836b46eb"/>
          <type value="PractitionerRole"/>
        </performer>
        <valueQuantity>
          <value value="5.18"/>
          <system value="http://unitsofmeasure.org"/>
          <code value="kU/L"/>
        </valueQuantity>
        <interpretation>
          <coding>
            <system value="https://termgit.elga.gv.at/CodeSystem/rast-klassen"/>
            <code value="RAST3"/>
          </coding>
        </interpretation>
        <referenceRange>
          <low>
            <value value="0"/>
            <system value="http://unitsofmeasure.org"/>
            <code value="kU/L"/>
          </low>
          <high>
            <value value="0.35"/>
            <system value="http://unitsofmeasure.org"/>
            <code value="kU/L"/>
          </high>
          <type>
            <coding>
              <system value="http://terminology.hl7.org/CodeSystem/referencerange-meaning"/>
              <code value="normal"/>
            </coding>
          </type>
        </referenceRange>
      </Observation>
    </resource>
  </entry>
</Bundle>